chunkTimeUtcMs;1676999857340;chunkTimeLocalMs;2427824
acc_x;3.7;2.89;2.19;1.73;1.59;1.78;2.16;2.61;3.08;3.43;3.57;3.52;3.34;3.02;2.47;1.69;0.812;-0.0407;-0.773;-1.19;-1.18;-0.883;-0.445;0.0168;0.373;0.527;0.512;0.388;0.175;-0.0239;-0.0694;0.115;0.486;0.871;1.12;1.17;1.03;0.797;0.603;0.536;0.67;0.991;1.35;1.57;1.62;1.46;1.08;0.579;0.108;-0.268;-0.481;-0.534;-0.522;-0.505;-0.565;-0.785;-1.19;-1.8;-2.46;-2.98;-3.32;-3.45;-3.35;-3.09;-2.76;-2.36;-1.94;-1.44;-0.821;-0.17;0.402;0.929;1.52;2.21;2.86;3.4;3.82;4.05;4.03;3.84;3.55;3.13;2.63;2.23;1.98;1.92;2;2.17;2.35;2.4;2.15;1.63;1.03;0.57;0.395;0.587;1.21;2.24;3.47;4.62;5.54;6.21;6.55;6.47;5.99;5.27;4.53;3.95;3.57;3.35;3.22;3.1;2.86;2.48;2.01;1.45;0.795;0.0718;-0.735;-1.57;-2.27;-2.81;-3.18;-3.36;-3.3;-2.98;-2.51;-2.09;-1.74;-1.48;-1.45;-1.69;-2.2;-2.9;-3.64;-4.24;-4.49;-4.33;-3.83;-3.13;-2.38;-1.71;-1.18;-0.84;-0.764;-0.895;-1.17;-1.62;-2.19;-2.78;-3.24;-3.34;-2.97;-2.21;-1.18;-0.0718;0.838;1.37;1.49;1.2;0.508;-0.407;-1.29;-1.95;-2.24;-2.01;-1.3;-0.34;0.611;1.4;1.93;2.11;1.92;1.52;0.991;0.388;-0.136;-0.512;-0.716;-0.749;-0.651;-0.522;-0.455;-0.577;-1.02;-1.81;-2.88;-4.01;-5.02;-5.69;-5.88;-5.6;-5;-4.24;-3.33;-2.37;-1.51;-0.876;-0.548;-0.601;-1.04;-1.83;-2.78;-3.68;-4.37;-4.8;-4.85;-4.43;-3.61;-2.5;-1.3;-0.263;0.393;0.5;0.0407;-0.8;-1.72;-2.45;-2.84;-2.86;-2.49;-1.88;-1.2;-0.553;-0.00718;0.393;0.663;0.85;1.03;1.19;1.29;1.3;1.13;0.792;0.443;0.0934;-0.333;-0.773;-1.15;-1.51;-1.83;-2.07;-2.23;-2.4;-2.65;-2.95;-3.27;-3.56;-3.77;-3.93;-4.03;-4.05;-4;-3.89;-3.69;-3.5;-3.43;-3.59;-3.96;-4.39;-4.75;-4.9;-4.75;-4.34;-3.84;-3.42;-3.12;-2.94;-2.77;-2.52;-2.21;-2;-1.95;-2.05;-2.28;-2.62;-2.89;-2.87;-2.5;-1.86;-0.998;-0.0359;0.864;1.63;2.21;2.57;2.76;2.86;2.85;2.76;2.67;2.72;2.86;3.01;3.15;3.21;3.09;2.85;2.54;2.2;1.78;1.19;0.39;-0.548;-1.48;-2.23;-2.69;-2.78;-2.56;-2.14;-1.63;-1.13;-0.682;-0.299;0.0287;0.225;0.151;-0.244;-0.886;-1.67;-2.43;-2.96;-3.14;-2.98;-2.58;-2.07;-1.65;-1.46;-1.57;-1.99;-2.57;-3.15;-3.66;-3.97;-3.97;-3.53;-2.65;-1.5;-0.306;0.742;1.53;2.02;2.19;2.01;1.5;0.85;0.278;-0.134;-0.263;0.103;1.02;2.35;3.89;5.32;6.33;6.76;6.59;5.9;4.92;3.88;2.94;2.3;2.01;2.02;2.29;2.69;3.04;3.23;3.15;2.77;2.09;1.16;0.16;-0.783;-1.67;-2.41;-2.9;-3.1;-2.99;-2.59;-1.95;-1.21;-0.582;-0.204;-0.12;-0.393;-1.02;-1.76;-2.41;-2.9;-3.22;-3.33;-3.2;-2.8;-2.18;-1.46;-0.764;-0.314;-0.271;-0.582;-1.15;-1.85;-2.41;-2.69;-2.67;-2.42;-2.05;-1.64;-1.22;-0.819;-0.445;-0.122;0.148;0.373;0.589;0.867;1.18;1.48;1.81;2.16;2.4;2.54;2.69;2.89;3.14;3.38;3.46;3.31;2.96;2.46;2.01;1.75;1.66;1.74;1.89;1.96;1.9;1.67;1.27;0.8;0.354;-0.0263;-0.29;-0.345;-0.144;0.263;0.733;1.19;1.58;1.74;1.66;1.36;0.922;0.582;0.45;0.505;0.687;0.941;1.2;1.37;1.42;1.33;1.05;0.632;0.177;-0.211;-0.412;-0.364;-0.101;0.251;0.546;0.709;0.661;0.457;0.263;0.187;0.247;0.381;0.536;0.721;0.917;1.05;1.11;1.14;1.19;1.21;1.18;1.12;1.12;1.19;1.37;1.65;1.97;2.17;2.13;1.81;1.36;0.891;0.424;-0.0263;-0.419;-0.725;-0.936;-1.04;-1.05;-0.943;-0.709;-0.417;-0.0431;0.493;1.15;1.81;2.34;2.59;2.46;1.92;1.09;0.199;-0.512;-0.881;-0.833;-0.407;0.168;0.637;0.876;0.819;0.469;-0.0359;-0.548;-1.01;-1.4;-1.6;-1.51;-1.17;-0.646;-0.00239;0.572;0.917;1.05;0.977;0.675;0.287;-0.0838;-0.445;-0.687;-0.735;-0.697;-0.666;-0.567;-0.373;-0.177;-0.0958;-0.187;-0.443;-0.843;-1.26;-1.6;-1.82;-1.9;-1.82;-1.58;-1.24;-0.876;-0.558;-0.326;-0.141;-0.0431;-0.0766;-0.168;-0.251;-0.35;-0.438;-0.469;-0.421;-0.302;-0.148;0.0383;0.318;0.666;0.974;1.2;1.34;1.36;1.28;1.16;1.06;1.01;1.02;1.18;1.49;1.84;2.1;2.26;2.34;2.36;2.41;2.45;2.43;2.33;2.12;1.82;1.42;0.977;0.555;0.211;-0.101;-0.414;-0.613;-0.577;-0.395;-0.165;0.103;0.321;0.4;0.314;0.0503;-0.352;-0.807;-1.25;-1.65;-1.95;-2.14;-2.15;-1.99;-1.65;-1.16;-0.601;-0.0742;0.364;0.594;0.498;0.0766;-0.57;-1.2;-1.53;-1.49;-1.09;-0.33;0.637;1.58;2.38;2.99;3.32;3.45;3.5;3.51;3.56;3.75;4.16;4.77;5.57;6.5;7.49;8.44;9.33;9.97;10.2;10.1;9.57;8.85;8.04;7.27;6.74;6.54;6.65;6.98;7.41;7.82;8.15;8.47;8.76;8.99;9.13;9.16;8.99;8.56;8.03;7.52;7.08;6.76;6.61;6.71;7;7.28;7.35;7;6.09;4.69;3;1.26;-0.232;-1.36;-2.05;-2.26;-2.14;-1.88;-1.61;-1.49;-1.63;-1.97;-2.47;-3.05;-3.59;-3.96;-4.06;-3.92;-3.57;-3.02;-2.36;-1.73;-1.3;-1.05;-0.998;-1.26;-1.86;-2.75;-3.81;-4.78;-5.45;-5.7;-5.48;-4.88;-3.99;-2.98;-1.96;-0.936;-0.0359;0.5;0.567;0.16;-0.606;-1.51;-2.34;-2.91;-3.09;-2.86;-2.32;-1.59;-0.687;0.352;1.36;2.21;2.88;3.19;3.05;2.54;1.92;1.38;0.974;0.771;0.903;1.36;1.99;2.6;3.08;3.39;3.37;2.96;2.23;1.27;0.225;-0.627;-1.05;-0.936;-0.283;0.788;1.98;3.07;3.87;4.22;4.04;3.44;2.59;1.63;0.769;0.326;0.388;0.9;1.79;2.82;3.73;4.33;4.51;4.26;3.72;2.96;2.09;1.22;0.457;-0.103;-0.424;-0.508;-0.381;-0.0718;0.318;0.725;1.11;1.38;1.46;1.29;0.907;0.453;0.0335;-0.287;-0.407;-0.266;0.0718;0.441;0.721;0.819;0.694;0.369;-0.136;-0.764;-1.39;-1.92;-2.31;-2.59;-2.87;-3.15;-3.37;-3.52;-3.61;-3.65;-3.74;-3.96;-4.33;-4.75;-5.12;-5.38;-5.48;-5.29;-4.72;-3.92;-3.08;-2.35;-1.83;-1.57;-1.56;-1.81;-2.21;-2.64;-3.01;-3.21;-3.16;-2.9;-2.5;-2.1;-1.83;-1.75;-1.76;-1.75;-1.72;-1.64;-1.52;-1.36;-1.2;-1.03;-0.895;-0.752;-0.512;-0.141;0.385;1;1.63;2.25;2.74;2.98;2.91;2.55;2.05;1.62;1.37;1.33;1.49;1.8;2.14;2.34;2.26;1.92;1.41;0.692;-0.101;-0.766;-1.16;-1.29;-1.24;-1.09;-0.943;-0.898;-0.948;-1.01;-0.967;-0.833;-0.682;-0.558;-0.448;-0.393;-0.436;-0.539;-0.627;-0.639;-0.517;-0.213;0.22;0.632;0.922;1.07;1;0.675;0.117;-0.608;-1.33;-1.85;-2.06;-1.89;-1.38;-0.613;0.211;0.934;1.51;1.83;1.85;1.66;1.38;1.06;0.792;0.661;0.678;0.725;0.678;0.553;0.448;0.412;0.397;0.39;0.395;0.402;0.393;0.371;0.421;0.575;0.792;1.09;1.36;1.47;1.47;1.38;1.19;1;0.828;0.651;0.524;0.467;0.433;0.429;0.469;0.541;0.62;0.67;0.642;0.52;0.28;-0.105;-0.508;-0.802;-0.948;-0.946;-0.821;-0.567;-0.141;0.371;0.833;1.16;1.34;1.42;1.41;1.33;1.24;1.18;1.1;1.07;1.13;1.25;1.46;1.71;1.89;1.94;1.9;1.87;1.89;1.95;2.02;2.13;2.31;2.6;3.04;3.55;4.03;4.34;4.34;4.01;3.43;2.85;2.51;2.5;2.79;3.33;3.97;4.49;4.82;5.03;5.12;5.11;5.04;5;5.03;5.16;5.3;5.32;5.2;4.98;4.71;4.53;4.47;4.45;4.45;4.51;4.51;4.39;4.23;4.12;4.08;4.18;4.46;4.87;5.27;5.54;5.55;5.28;4.81;4.22;3.63;3.17;2.81;2.48;2.21;1.98;1.75;1.39;0.888;0.333;-0.189;-0.625;-0.912;-1.04;-1.04;-1.01;-1;-1.05;-1.11;-1.1;-0.948;-0.649;-0.175;0.407;0.895;1.16;1.17;0.857;0.247;-0.534;-1.34;-1.94;-2.2;-2.15;-1.79;-1.18;-0.508;0.0886;0.508;0.63;0.421;-0.00958;-0.498;-0.915;-1.15;-1.12;-0.785;-0.204;0.505;1.19;1.7;1.96;1.98;1.85;1.61;1.38;1.27;1.3;1.5;1.99;2.73;3.5;4.13;4.51;4.58;4.35;3.86;3.22;2.51;1.87;1.41;1.23;1.32;1.66;2.14;2.58;2.84;2.78;2.38;1.82;1.28;0.874;0.713;0.871;1.33;1.98;2.65;3.18;3.45;3.33;2.83;2.08;1.21;0.417;-0.0766;-0.139;0.127;0.587;1.23;1.97;2.63;3.03;3.17;3.03;2.65;2.11;1.53;1.01;0.728;0.766;1.1;1.62;2.25;2.88;3.35;3.58;3.61;3.45;3.16;2.8;2.45;2.12;1.82;1.58;1.43;1.31;1.23;1.21;1.24;1.28;1.32;1.25;0.998;0.599;0.105;-0.395;-0.79;-0.998;-1.04;-1.04;-1.1;-1.15;-1.19;-1.3;-1.52;-1.77;-2.05;-2.4;-2.82;-3.3;-3.78;-4.23;-4.61;-4.84;-4.88;-4.7;-4.29;-3.78;-3.34;-3.07;-2.97;-3.09;-3.35;-3.56;-3.68;-3.67;-3.47;-3.09;-2.51;-1.82;-1.28;-0.967;-0.828;-0.86;-1.1;-1.47;-1.76;-1.86;-1.67;-1.19;-0.469;0.385;1.19;1.83;2.21;2.26;2.02;1.6;1.13;0.795;0.725;0.905;1.25;1.75;2.41;3.05;3.55;3.92;4.09;3.89;3.34;2.54;1.63;0.836;0.441;0.503;0.977;1.77;2.61;3.25;3.63;3.6;3.1;2.31;1.41;0.555;-0.105;-0.51;-0.649;-0.539;-0.242;0.192;0.685;1.11;1.35;1.34;1.08;0.685;0.314;0.0311;-0.139;-0.165;-0.127;-0.108;-0.079;-0.0527;-0.136;-0.314;-0.524;-0.749;-0.883;-0.816;-0.601;-0.33;-0.0766;0.153;0.4;0.646;0.848;0.996;1.02;0.886;0.611;0.206;-0.263;-0.613;-0.723;-0.606;-0.283;0.172;0.57;0.735;0.594;0.132;-0.62;-1.52;-2.38;-3;-3.34;-3.42;-3.38;-3.25;-3.02;-2.74;-2.49;-2.28;-2.16;-2.19;-2.4;-2.68;-2.94;-3.14;-3.25;-3.28;-3.23;-3.08;-2.91;-2.77;-2.66;-2.67;-2.97;-3.49;-4.1;-4.64;-4.98;-4.99;-4.74;-4.34;-3.88;-3.45;-3.11;-2.83;-2.63;-2.46;-2.27;-2.05;-1.88;-1.74;-1.56;-1.39;-1.2;-0.845;-0.311;0.342;1.02;1.69;2.32;2.74;2.83;2.53;1.88;1.07;0.299;-0.395;-1.02;-1.49;-1.72;-1.71;-1.54;-1.2;-0.699;-0.091;0.472;0.843;0.946;0.8;0.402;-0.208;-0.821;-1.2;-1.25;-0.955;-0.34;0.457;1.22;1.76;1.94;1.69;1.14;0.421;-0.347;-0.989;-1.37;-1.4;-1.05;-0.417;0.302;0.9;1.26;1.37;1.26;1.03;0.74;0.455;0.215;0.113;0.227;0.589;1.24;2.14;3.22;4.39;5.4;6.05;6.27;6.05;5.45;4.67;3.92;3.38;3.14;3.28;3.79;4.5;5.21;5.7;5.87;5.72;5.26;4.53;3.77;3.18;2.83;2.72;2.82;3;3.11;3.06;2.85;2.56;2.17;1.77;1.38;0.962;0.567;0.244;-0.00479;-0.16;-0.223;-0.213;-0.184;-0.172;-0.192;-0.239;-0.326;-0.429;-0.51;-0.582;-0.615;-0.541;-0.433;-0.397;-0.409;-0.405;-0.448;-0.527;-0.56;-0.539;-0.46;-0.278;-0.00718;0.256;0.443;0.558;0.577;0.491;0.395;0.4;0.551;0.95;1.68;2.65;3.76;4.84;5.68;6.15;6.24;5.97;5.42;4.74;4.15;3.75;3.59;3.73;4.12;4.66;5.23;5.66;5.76;5.45;4.77;3.86;2.97;2.32;1.95;1.94;2.31;2.86;3.38;3.77;3.95;3.77;3.22;2.44;1.64;0.998;0.611;0.503;0.678;1.04;1.44;1.76;1.94;1.87;1.49;0.876;0.18;-0.498;-1.06;-1.37;-1.36;-0.998;-0.429;0.23;0.893;1.41;1.57;1.24;0.488;-0.505;-1.53;-2.35;-2.73;-2.57;-1.9;-0.862;0.247;1.12;1.59;1.58;1.07;0.23;-0.709;-1.53;-2.06;-2.2;-1.98;-1.51;-0.869;-0.156;0.484;0.903;0.994;0.771;0.354;-0.151;-0.668;-1.13;-1.46;-1.6;-1.52;-1.22;-0.737;-0.189;0.321;0.728;0.91;0.816;0.496;0.0431;-0.431;-0.723;-0.651;-0.199;0.611;1.68;2.8;3.74;4.27;4.25;3.74;2.83;1.73;0.754;0.136;-0.00479;0.33;1.05;1.96;2.81;3.35;3.5;3.36;3.03;2.58;2.15;1.81;1.64;1.65;1.81;2.03;2.21;2.24
acc_y;7.81;8.03;8.41;8.78;8.95;8.87;8.81;9.08;9.83;10.9;12.2;13.1;13.4;12.8;11.7;10.8;10.3;10.4;11.1;12.2;13.1;13.8;14.6;15.3;15.8;15.9;15.6;15.2;15.1;15.3;15.4;14.8;13.3;11.2;8.84;6.97;6.17;6.44;7.13;7.51;7.3;6.58;5.74;5.35;5.76;6.95;8.6;10.3;11.6;12.5;13.2;14;14.6;14.8;14.9;14.9;14.8;14.7;14.2;13.2;11.6;9.6;7.64;6.25;5.53;5.05;4.47;3.89;3.53;3.39;3.36;3.41;3.56;3.79;4.14;4.64;5.21;5.68;5.93;5.85;5.52;5.12;4.94;5.09;5.41;5.67;5.81;5.77;5.48;5.11;5.03;5.47;6.22;7.03;7.79;8.49;9.2;10.1;11.4;12.6;13.6;14;13.7;12.9;12.2;11.8;11.2;10.3;9.24;8.36;7.84;7.8;8.19;8.77;9.38;9.97;10.5;10.8;11.1;11.3;11.8;12.7;14;15.8;17.5;18.9;19.8;20.3;20.5;20.1;18.8;16.8;14.7;12.9;11.4;10.3;9.37;8.33;6.92;5.43;4.39;4.33;5.3;6.69;7.67;7.76;7;5.9;5.32;5.9;7.49;9.29;10.7;11.8;12.7;13.4;13.9;14.2;14.2;13.7;12.7;11.5;10.6;10.2;10.2;10.4;10.6;10.6;10.3;9.87;9.56;9.6;9.88;10;9.81;9.2;8.34;7.68;7.66;8.37;9.5;10.5;10.8;10.4;9.7;9.13;8.96;9.11;9.4;9.76;10.2;10.7;11.6;12.9;14.6;16.1;16.9;17;16.5;15.6;14.6;13.6;12.4;11;9.47;8.13;7.27;7.08;7.64;8.58;9.19;8.94;7.85;6.29;4.8;3.96;3.96;4.44;4.85;4.9;4.76;4.8;5.36;6.54;8.32;10.5;12.4;13.6;13.8;13.7;13.8;14.4;15.2;15.8;15.9;15.6;15.3;14.9;14.5;14.4;14.1;13.6;13;12.6;12.5;12.4;12.1;11.5;10.7;9.84;9.29;9.27;9.76;10.4;10.5;10;9.28;9.14;9.96;11.5;13.3;14.8;15.6;15.3;14.8;14.7;15.3;16.3;17;17;16.2;14.7;12.6;10.5;8.79;7.83;7.38;7.07;6.71;6.22;5.77;5.5;5.41;5.36;5.33;5.2;4.85;4.54;4.74;5.54;6.43;6.76;6.44;6;6.06;6.96;8.58;10.2;10.9;10.4;9.13;7.63;6.52;6.38;7.29;8.65;9.81;10.4;10.4;10.3;10.4;11.3;12.8;14.2;14.9;14.5;13.1;11.4;10.2;9.85;10.2;10.8;11.1;10.9;10.2;9.51;9.37;9.79;10.4;10.9;10.9;10.7;10.7;11.3;12.5;13.7;14.8;15.7;16.4;16.7;17;17;16.3;14.7;12.3;9.59;7.17;5.61;5.05;5.1;5.33;5.7;6.12;6.28;6.09;5.79;5.54;5.23;4.87;4.67;4.58;4.47;4.5;4.97;6.07;7.7;9.44;10.8;11.8;12.3;12.5;12.4;12;11.2;10.1;9.04;8.65;9.22;10.4;11.5;11.9;11.6;10.8;9.94;9.42;9.41;9.63;9.56;8.72;7.2;5.82;5.42;6.22;7.7;9.17;10.1;10.3;10.3;10.2;10.3;10.6;11;11.3;11;10.1;9.09;8.61;8.7;8.85;8.56;7.66;6.41;5.36;4.87;4.96;5.3;5.19;4.16;2.52;1.15;0.912;1.98;3.64;4.97;5.34;4.76;3.84;3.43;4.11;5.79;7.88;9.67;10.7;10.8;10.6;10.5;10.8;11.5;12.2;12.6;12.7;12.7;12.6;12.4;12.5;12.9;13.2;13.2;12.8;12.3;11.8;11.5;11.4;11;10.4;9.78;9.28;9.1;9.31;9.72;9.96;9.87;9.62;9.6;10;10.8;11.5;11.8;11.5;10.7;9.75;9.16;9.14;9.52;9.79;9.52;8.7;7.52;6.29;5.48;5.46;6.11;6.8;6.93;6.31;5.28;4.36;3.97;4.27;5.01;5.72;6.05;5.97;5.65;5.39;5.28;5.23;5.11;4.86;4.59;4.47;4.56;4.82;5.23;5.79;6.57;7.72;9.4;11.7;14;15.6;16.2;16;15.1;14.1;13.1;12.4;12.1;12.1;12;11.3;10.2;8.87;7.88;7.31;7.05;6.99;6.93;6.63;5.97;5.25;4.99;5.45;6.31;7.17;8.06;9.12;10.2;10.9;11.7;12.8;13.8;14.4;14.2;13.7;13.3;13.2;13.4;13.6;13.6;13.3;12.5;11.3;9.97;8.88;8.18;7.7;7.25;6.82;6.54;6.49;6.63;6.85;7.11;7.54;8.11;8.57;8.71;8.59;8.36;8.18;8.16;8.46;9.15;10.2;11.4;12.3;12.7;12.8;13;13.3;13.5;13.5;13.2;12.6;11.8;11;10.3;9.67;9.1;8.56;8;7.44;6.88;6.38;6.06;5.98;5.95;5.77;5.36;4.82;4.27;3.88;3.64;3.49;3.5;3.93;4.84;5.97;7.02;8.02;8.95;9.68;10.1;10.3;10.3;10.2;10.1;9.87;9.61;9.34;9.01;8.75;8.96;9.82;11;12.1;12.6;12.2;10.8;9.27;8.4;8.38;8.76;8.84;8.3;7.35;6.49;6.22;6.72;7.58;8.22;8.35;8.12;7.82;7.78;8.18;8.97;9.95;10.9;11.7;12.4;13.3;14.7;16.1;16.9;16.7;15.5;13.6;11.4;9.42;8.15;7.65;7.45;7.1;6.45;5.64;4.94;4.66;5.05;6.03;7.13;7.75;7.65;7.17;6.76;6.65;7.06;8.19;10;12;13.4;13.7;13.2;12.5;11.7;10.7;9.44;8.18;7.06;6.12;5.35;4.79;4.61;4.82;5.16;5.49;6.01;6.9;8.01;9.12;10.1;10.7;10.8;10.5;10.1;10;10.5;11.3;12.2;12.5;11.9;10.4;8.41;6.37;4.86;4.12;3.89;3.8;3.7;3.81;4.65;6.47;8.88;11.2;12.7;13.3;13.2;12.5;11.8;11.4;11.1;10.7;9.82;8.72;7.72;7.22;7.53;8.55;9.83;10.9;11.3;11;10.4;9.58;8.88;8.39;8.28;8.63;9.18;9.74;10.4;11.4;12.5;13.4;13.7;13.5;12.6;11.5;10.2;9.14;8.36;7.93;7.65;7.34;7.1;7.19;7.63;8.15;8.35;7.96;6.95;5.66;4.8;4.86;5.62;6.51;7.23;7.83;8.49;9.25;10.1;11;11.9;12.5;12.4;11.5;10.3;9.22;8.45;7.93;7.69;7.92;8.63;9.38;9.74;9.68;9.46;9.14;8.53;7.52;6.23;5.11;4.73;5.16;5.94;6.57;6.78;6.57;6.24;6.26;7.12;8.74;10.5;11.4;11.3;10.6;10.1;10.4;11.3;12.2;12.8;13;12.7;12.1;11.4;10.8;10.2;9.97;10;10.1;10;9.9;10;10.4;10.8;10.9;10.5;9.59;8.48;7.75;7.69;8.08;8.56;8.79;8.6;8.19;7.92;7.99;8.5;9.31;9.92;9.92;9.4;8.71;8.02;7.47;7.25;7.35;7.6;7.94;8.41;9.01;9.59;9.88;9.68;9.05;8.16;7.34;6.93;7.08;7.63;8.15;8.42;8.56;8.63;8.51;8.22;7.95;7.87;7.99;8.16;8.22;8.09;7.74;7.19;6.57;6.2;6.43;7.21;8.2;9.08;9.88;10.6;11.1;11.3;11.2;11;11;11.2;11.5;12.1;12.8;13.3;13.5;13.2;12.6;11.8;10.9;9.72;8.47;7.44;6.66;5.95;5.3;5.02;5.46;6.59;7.9;8.94;9.54;9.75;9.84;10.1;10.4;10.5;10.3;9.81;9.15;8.69;8.7;9.21;9.9;10.3;10.2;9.66;8.87;8.2;8.05;8.39;8.74;8.78;8.6;8.31;7.9;7.4;6.89;6.52;6.38;6.33;6.15;5.76;5.29;4.95;4.85;5;5.32;5.54;5.5;5.3;5.27;5.63;6.25;6.81;7.21;7.66;8.41;9.44;10.5;11.2;11.4;11.4;11.3;11.2;11.3;11.3;10.8;9.57;7.9;6.4;5.5;5.17;5.05;4.82;4.62;4.85;5.57;6.47;7.25;7.7;7.81;7.85;8.22;9.14;10.5;11.8;12.8;13;12.6;11.6;10.6;9.89;9.56;9.56;9.56;9.31;8.85;8.32;7.84;7.52;7.48;7.68;7.97;8.31;8.67;8.79;8.44;7.62;6.59;5.79;5.6;6.02;6.63;6.96;6.89;6.57;6.12;5.74;5.6;5.69;5.98;6.45;7.03;7.65;8.24;8.88;9.56;10;10.2;10.2;9.99;9.52;8.95;8.47;8.22;8.04;7.57;6.6;5.45;4.67;4.52;4.82;5.26;5.71;6.06;6.27;6.5;7.01;7.82;8.71;9.55;10.5;11.6;12.7;13.7;14.3;14.3;13.7;12.8;11.6;10.6;9.81;9.32;8.97;8.78;8.83;8.95;8.93;8.88;9.01;9.28;9.48;9.46;9.15;8.66;8.2;7.84;7.6;7.55;7.72;8.02;8.31;8.55;8.6;8.27;7.56;6.73;6.28;6.51;7.29;8.19;8.85;9.2;9.39;9.58;9.89;10.2;10.4;10;9.25;8.34;7.73;7.43;7.26;7.16;7.18;7.3;7.38;7.31;7.09;6.77;6.49;6.35;6.47;6.93;7.72;8.68;9.71;10.6;11;10.8;10.3;9.79;9.37;9.08;9;9.02;8.82;8.3;7.8;7.86;8.62;9.8;10.8;11.2;10.8;10;9.16;8.53;8.43;8.86;9.5;10.2;10.9;11.7;12.3;12.8;13.2;13.6;14;14.3;14.1;13.7;12.9;11.9;11.1;10.7;11;11.7;12.4;13;13.2;12.9;12.4;11.7;10.9;10.5;10.3;10.1;9.61;9.08;8.72;8.44;8.18;8.1;8.38;8.94;9.47;9.72;9.64;9.28;8.7;8.11;7.81;8.06;8.92;10.1;11;11.5;11.6;11.5;11.4;11.5;11.7;11.8;11.5;10.7;9.85;9.4;9.52;9.86;10;9.81;9.11;8.16;7.42;7.06;7.04;7.15;7.24;7.25;7.3;7.56;8.05;8.65;9.19;9.5;9.47;9.14;8.83;8.77;8.77;8.58;8.42;8.6;9.21;10.1;10.9;11.5;11.7;11.8;11.6;10.9;9.89;9.18;8.98;9.23;9.94;11.1;12.2;12.9;13;12.6;12.1;12;12;11.8;10.8;9.59;8.64;8.31;8.64;9.6;10.8;11.7;12.3;13;13.7;14;13.9;13.5;12.9;12.5;12.3;12.3;12.3;12.2;11.7;11.1;10.8;11;11.4;11.5;11.2;10.7;10.4;10.4;10.8;11.5;12.2;12.7;12.6;12.1;11.5;11.3;11.5;12.4;13.5;14.5;15.2;15.5;15.3;14.9;14.5;14.3;14.1;13.9;13.6;13.1;12.3;11.4;10.8;10.6;10.8;11.2;11.8;12.3;12.6;12.8;12.7;12.4;12.2;11.7;10.9;10.3;10.2;10.5;11.1;11.7;12.1;12.2;11.6;10.7;10.1;10;10.4;10.7;10.7;10.2;9.33;8.58;8.38;8.77;9.47;9.99;9.83;8.89;7.52;6.21;5.41;5.28;5.61;6.16;6.79;7.54;8.51;9.61;10.4;10.7;10.4;10.2;10.1;9.97;9.86;9.7;9.46;9.07;8.67;8.63;9.22;10.5;12.2;13.8;14.9;15.5;15.6;15;14.1;13.2;12.9;13.1;13.6;13.9;14.1;14;14.1;14.2;14.4;14.6;14.6;14.1;13;12;11.4;11.3;11.2;11;10.7;10.6;11;11.9;13;13.8;13.8;13.2;12.3;11.4;11.1;11.5;12.6;13.9;15;15.4;15.1;14.4;13.7;12.9;11.8;10.5;9.18;8.09;7.25;6.73;6.65;6.9;7.22;7.45;7.53;7.59;7.9;8.64;9.69;10.7;11.4;11.7;11.9;12;12.2;12.8;13.8;14.6;14.9;14.3;13;11.6;10.6;9.82;8.84;7.71;6.71;5.99;5.51;5.29;5.24;5.11;4.76;4.38;4.3;4.61;5.2;5.94;6.7;7.34;7.93;8.52;9.04;9.4;9.65;9.87;10.1;10.5;10.8;10.9;10.7;10.2;9.5;8.82;8.26;7.88;7.75;8.02;8.79;9.76;10.5;10.8;10.8;10.9;11;11.4;11.8;12;11.7;10.7;9.67;9.21;9.57;10.6;11.9;13;13.6;13.6;13.3;13.1;13.2;13.6;14.1;14.6;15;15.1;14.8;14.3;14;14.2;14.5;14.3;13.5;12.1;10.7;9.73;9.13;8.97;9.15;9.33;9.29;9.13;8.96;8.79;8.52;8.05;7.46;7.11;7.34;8.25;9.72;11.4;12.6;13;12.5;11.6;10.3;9.19;8.21;7.4;6.73;6.27;6.19;6.66;7.46;8.14;8.43;8.36;8.01;7.53;7.1;6.7;6.39;6.35;6.57;7.06;7.92;9.04;10.3;11.5;12.7;13.4;13.3;12.5;11.3;9.96;8.74;7.85;7.56;7.85;8.35;8.76;9.06;9.35;9.64;9.72;9.38;8.76;8.26;8.12;8.41;9.18;10.3;11.5;12.3;12.5;12.4;11.8;10.9;9.78;8.69;7.8;7.15;6.55;5.85;5.23;4.95;5.01;5.37;6.11;7.13;7.93;8.13;7.96;7.86;8.11;8.76;9.71;10.8;11.7;12.3;12.6
acc_z;0.29;-0.776;-1.86;-2.89;-3.7;-4.22;-4.53;-4.66;-4.59;-4.33;-3.93;-3.43;-2.9;-2.44;-2.06;-1.76;-1.57;-1.56;-1.73;-2.06;-2.48;-3;-3.59;-4.21;-4.8;-5.24;-5.48;-5.54;-5.45;-5.29;-5.12;-4.87;-4.4;-3.7;-2.81;-1.75;-0.603;0.508;1.48;2.21;2.6;2.6;2.19;1.44;0.426;-0.792;-2.14;-3.47;-4.69;-5.82;-6.91;-7.9;-8.69;-9.15;-9.25;-9.02;-8.49;-7.72;-6.84;-5.92;-4.98;-4.09;-3.36;-2.77;-2.29;-1.93;-1.71;-1.65;-1.82;-2.21;-2.79;-3.53;-4.46;-5.53;-6.56;-7.45;-8.21;-8.75;-8.92;-8.71;-8.17;-7.33;-6.2;-4.86;-3.41;-1.95;-0.522;0.814;2.05;3.16;4.07;4.75;5.2;5.44;5.36;4.87;4.01;2.86;1.54;0.158;-1.15;-2.16;-2.75;-2.95;-2.76;-2.17;-1.29;-0.17;1.17;2.54;3.78;4.83;5.67;6.26;6.48;6.23;5.51;4.35;2.79;0.996;-0.939;-2.99;-5.06;-7.07;-8.86;-10.4;-11.6;-12.5;-13.1;-13.2;-13;-12.2;-11.2;-9.96;-8.64;-7.36;-6.23;-5.35;-4.71;-4.27;-4.07;-4.17;-4.54;-5.08;-5.65;-6.21;-6.74;-7.17;-7.46;-7.68;-7.86;-7.88;-7.69;-7.47;-7.22;-6.87;-6.38;-5.74;-4.95;-3.95;-2.73;-1.47;-0.316;0.615;1.29;1.68;1.79;1.7;1.53;1.31;1.13;0.991;0.879;0.852;0.905;1.02;1.16;1.31;1.41;1.35;1.18;1.02;0.879;0.804;0.79;0.831;0.871;0.8;0.567;0.148;-0.517;-1.42;-2.55;-3.94;-5.49;-6.99;-8.37;-9.53;-10.4;-10.8;-10.9;-10.6;-10.1;-9.18;-8.08;-6.97;-5.92;-5.03;-4.41;-4.06;-3.9;-3.83;-3.68;-3.37;-2.94;-2.44;-1.92;-1.52;-1.23;-1.1;-1.12;-1.25;-1.49;-1.89;-2.38;-2.9;-3.48;-4.05;-4.52;-4.94;-5.31;-5.66;-5.93;-5.94;-5.7;-5.35;-4.91;-4.37;-3.75;-3.06;-2.28;-1.44;-0.632;0.067;0.675;1.19;1.57;1.82;1.97;1.98;1.82;1.51;1.04;0.431;-0.151;-0.625;-1.02;-1.36;-1.67;-2.01;-2.42;-3;-3.68;-4.34;-5;-5.67;-6.3;-6.81;-7.15;-7.29;-7.18;-6.78;-6.1;-5.19;-4.08;-2.84;-1.58;-0.414;0.565;1.22;1.49;1.41;0.979;0.297;-0.536;-1.45;-2.38;-3.25;-4;-4.66;-5.29;-5.7;-5.77;-5.62;-5.36;-4.99;-4.61;-4.21;-3.74;-3.22;-2.7;-2.2;-1.74;-1.38;-1.19;-1.23;-1.41;-1.71;-2.16;-2.74;-3.39;-4.11;-4.89;-5.66;-6.31;-6.71;-6.81;-6.62;-6.21;-5.65;-5.01;-4.32;-3.6;-2.93;-2.4;-2.05;-1.8;-1.65;-1.6;-1.55;-1.47;-1.47;-1.59;-1.88;-2.38;-3.03;-3.72;-4.47;-5.26;-5.97;-6.49;-6.83;-6.89;-6.56;-5.88;-4.86;-3.55;-2.1;-0.711;0.56;1.63;2.39;2.83;2.94;2.76;2.37;1.86;1.28;0.625;-0.0958;-0.869;-1.6;-2.2;-2.68;-3.1;-3.4;-3.48;-3.38;-3.18;-2.91;-2.66;-2.45;-2.25;-2.06;-1.9;-1.81;-1.86;-2.05;-2.38;-2.82;-3.29;-3.76;-4.26;-4.76;-5.2;-5.54;-5.76;-5.86;-5.86;-5.77;-5.64;-5.56;-5.67;-5.94;-6.26;-6.61;-7;-7.4;-7.82;-8.25;-8.65;-8.98;-9.2;-9.32;-9.35;-9.23;-8.93;-8.47;-7.82;-6.92;-5.77;-4.49;-3.26;-2.2;-1.41;-0.893;-0.565;-0.393;-0.338;-0.39;-0.577;-0.831;-1.09;-1.36;-1.51;-1.4;-1.11;-0.754;-0.335;0.134;0.632;1.07;1.37;1.53;1.49;1.32;1.09;0.783;0.488;0.249;0.0192;-0.158;-0.266;-0.381;-0.529;-0.651;-0.692;-0.658;-0.575;-0.419;-0.239;-0.079;0.0622;0.0958;-0.0503;-0.357;-0.783;-1.31;-1.89;-2.45;-2.97;-3.37;-3.6;-3.76;-3.96;-4.23;-4.58;-5;-5.42;-5.79;-6.09;-6.27;-6.35;-6.37;-6.29;-6.13;-5.95;-5.78;-5.66;-5.59;-5.56;-5.59;-5.71;-5.85;-6.01;-6.14;-6.25;-6.42;-6.6;-6.72;-6.78;-6.66;-6.37;-5.96;-5.44;-4.82;-4.13;-3.37;-2.64;-1.98;-1.44;-1.07;-0.867;-0.857;-1.02;-1.24;-1.54;-2.05;-2.82;-3.71;-4.63;-5.52;-6.25;-6.7;-6.79;-6.53;-5.94;-5.07;-4.03;-2.88;-1.67;-0.464;0.668;1.71;2.7;3.63;4.45;5.07;5.42;5.5;5.28;4.69;3.72;2.49;1.1;-0.292;-1.62;-2.85;-3.9;-4.71;-5.32;-5.76;-6;-6.03;-5.93;-5.78;-5.61;-5.42;-5.26;-5.13;-4.99;-4.81;-4.54;-4.21;-3.81;-3.34;-2.84;-2.36;-1.95;-1.64;-1.42;-1.35;-1.44;-1.63;-1.9;-2.31;-2.81;-3.34;-3.87;-4.37;-4.72;-4.89;-4.91;-4.82;-4.68;-4.49;-4.25;-4.06;-3.98;-4.01;-4.07;-4.19;-4.38;-4.59;-4.79;-4.92;-4.99;-5.02;-4.94;-4.67;-4.26;-3.77;-3.21;-2.62;-2.02;-1.46;-1.08;-0.931;-0.955;-1.07;-1.26;-1.55;-1.89;-2.22;-2.53;-2.78;-2.96;-3.13;-3.3;-3.45;-3.66;-3.94;-4.23;-4.53;-4.89;-5.21;-5.49;-5.74;-5.91;-5.99;-5.96;-5.81;-5.54;-5.25;-4.97;-4.76;-4.64;-4.57;-4.46;-4.18;-3.72;-3.21;-2.68;-2.09;-1.38;-0.603;0.139;0.795;1.33;1.73;2.04;2.29;2.51;2.66;2.67;2.52;2.15;1.56;0.838;0.0383;-0.807;-1.65;-2.44;-3.18;-3.89;-4.47;-4.74;-4.66;-4.21;-3.4;-2.28;-0.943;0.484;1.9;3.24;4.42;5.34;5.98;6.29;6.14;5.43;4.21;2.64;0.867;-0.965;-2.77;-4.45;-5.96;-7.32;-8.52;-9.54;-10.3;-10.6;-10.5;-10.1;-9.43;-8.36;-6.93;-5.25;-3.51;-1.91;-0.613;0.239;0.558;0.369;-0.206;-1.08;-2.18;-3.39;-4.66;-5.89;-7.04;-8.03;-8.82;-9.34;-9.54;-9.48;-9.25;-8.78;-8.04;-7.06;-5.85;-4.47;-2.97;-1.44;0.0335;1.41;2.6;3.58;4.28;4.56;4.39;3.79;2.78;1.54;0.247;-0.95;-1.92;-2.58;-2.88;-2.75;-2.23;-1.38;-0.261;1.05;2.42;3.75;4.91;5.79;6.28;6.42;6.21;5.62;4.68;3.48;2.15;0.776;-0.555;-1.76;-2.83;-3.68;-4.33;-4.79;-5.03;-5.03;-4.8;-4.31;-3.62;-2.8;-1.93;-1.11;-0.52;-0.199;-0.0838;-0.192;-0.565;-1.14;-1.79;-2.45;-3.02;-3.41;-3.59;-3.59;-3.55;-3.56;-3.66;-3.84;-4.09;-4.4;-4.68;-4.85;-4.9;-4.91;-4.84;-4.63;-4.37;-4.08;-3.8;-3.58;-3.43;-3.22;-2.91;-2.59;-2.28;-1.93;-1.53;-1.08;-0.644;-0.268;0.0575;0.364;0.639;0.84;0.857;0.656;0.278;-0.215;-0.749;-1.24;-1.58;-1.76;-1.84;-1.91;-2;-2.06;-2.07;-2.01;-2.01;-2.18;-2.41;-2.54;-2.59;-2.62;-2.63;-2.54;-2.3;-1.97;-1.58;-1.15;-0.764;-0.438;-0.225;-0.256;-0.517;-0.967;-1.59;-2.26;-2.85;-3.29;-3.56;-3.67;-3.66;-3.6;-3.52;-3.3;-2.96;-2.62;-2.28;-1.94;-1.65;-1.45;-1.36;-1.35;-1.38;-1.56;-1.9;-2.26;-2.59;-2.9;-3.17;-3.37;-3.53;-3.74;-4.03;-4.37;-4.71;-5;-5.2;-5.25;-5.14;-4.92;-4.68;-4.46;-4.28;-4.19;-4.15;-4.06;-3.91;-3.7;-3.4;-3;-2.53;-2.02;-1.54;-1.13;-0.754;-0.438;-0.237;-0.175;-0.199;-0.28;-0.441;-0.735;-1.22;-1.89;-2.67;-3.46;-4.15;-4.74;-5.19;-5.48;-5.57;-5.54;-5.43;-5.21;-4.86;-4.34;-3.69;-3;-2.18;-1.2;-0.189;0.728;1.53;2.14;2.41;2.28;1.82;1.07;0.0694;-1.05;-2.17;-3.25;-4.29;-5.21;-5.92;-6.39;-6.58;-6.47;-6.06;-5.41;-4.62;-3.72;-2.76;-1.89;-1.21;-0.733;-0.491;-0.572;-1.01;-1.73;-2.59;-3.5;-4.41;-5.26;-5.88;-6.21;-6.24;-5.97;-5.4;-4.57;-3.62;-2.63;-1.64;-0.824;-0.268;0.0838;0.266;0.244;-0.0455;-0.546;-1.16;-1.78;-2.34;-2.81;-3.21;-3.52;-3.77;-3.95;-4.01;-3.95;-3.83;-3.67;-3.44;-3.11;-2.74;-2.35;-1.89;-1.33;-0.694;-0.0503;0.56;1.13;1.65;2.01;2.11;1.95;1.53;0.879;0.0742;-0.84;-1.83;-2.86;-3.91;-4.92;-5.77;-6.39;-6.75;-6.82;-6.59;-6.1;-5.44;-4.65;-3.81;-3.07;-2.56;-2.36;-2.44;-2.73;-3.24;-3.9;-4.57;-5.21;-5.81;-6.3;-6.71;-7.07;-7.25;-7.11;-6.72;-6.18;-5.46;-4.53;-3.52;-2.6;-1.82;-1.21;-0.792;-0.596;-0.615;-0.809;-1.19;-1.75;-2.43;-3.15;-3.97;-4.8;-5.44;-5.79;-5.81;-5.53;-5.02;-4.32;-3.49;-2.6;-1.68;-0.658;0.409;1.42;2.32;3.09;3.7;4.09;4.16;3.9;3.39;2.64;1.65;0.57;-0.503;-1.59;-2.62;-3.55;-4.4;-5.15;-5.77;-6.19;-6.33;-6.14;-5.65;-4.93;-4.08;-3.22;-2.35;-1.56;-1.05;-0.888;-0.979;-1.29;-1.78;-2.4;-3.08;-3.65;-4.08;-4.42;-4.68;-4.84;-4.89;-4.85;-4.76;-4.61;-4.36;-4.1;-3.85;-3.59;-3.39;-3.25;-3.24;-3.49;-3.96;-4.56;-5.28;-6.06;-6.81;-7.48;-8.01;-8.31;-8.31;-7.96;-7.32;-6.52;-5.65;-4.75;-3.89;-3.14;-2.51;-2.03;-1.7;-1.45;-1.23;-1.07;-1;-0.979;-1.05;-1.3;-1.7;-2.21;-2.79;-3.4;-3.88;-4.07;-3.97;-3.6;-3;-2.2;-1.26;-0.299;0.622;1.54;2.38;3.04;3.46;3.65;3.69;3.6;3.36;3.03;2.66;2.23;1.72;1.16;0.675;0.316;0.0239;-0.168;-0.208;-0.148;-0.0311;0.117;0.223;0.218;0.0431;-0.294;-0.761;-1.29;-1.8;-2.31;-2.83;-3.31;-3.66;-3.91;-4.07;-4.14;-4.13;-4.02;-3.89;-3.78;-3.71;-3.73;-3.84;-4.03;-4.33;-4.66;-4.96;-5.22;-5.42;-5.57;-5.71;-5.83;-5.95;-6.02;-5.97;-5.86;-5.71;-5.53;-5.37;-5.29;-5.24;-5.21;-5.17;-5.14;-5.13;-5.06;-4.89;-4.63;-4.27;-3.83;-3.37;-2.98;-2.64;-2.31;-1.97;-1.55;-0.994;-0.366;0.302;0.974;1.56;2.09;2.55;2.86;2.96;2.93;2.78;2.53;2.23;1.98;1.84;1.84;1.85;1.82;1.8;1.73;1.6;1.48;1.29;1.03;0.749;0.443;0.105;-0.242;-0.539;-0.701;-0.749;-0.778;-0.855;-1.02;-1.34;-1.86;-2.52;-3.18;-3.83;-4.41;-4.81;-5.09;-5.21;-5.15;-4.95;-4.67;-4.39;-4.18;-4.05;-4.07;-4.18;-4.29;-4.43;-4.74;-5.2;-5.73;-6.22;-6.64;-7.03;-7.36;-7.52;-7.51;-7.3;-6.81;-6.04;-5.05;-3.9;-2.66;-1.48;-0.393;0.541;1.25;1.74;2;1.98;1.72;1.26;0.637;-0.067;-0.725;-1.21;-1.45;-1.46;-1.29;-0.998;-0.591;-0.134;0.309;0.704;1.06;1.39;1.75;2.14;2.49;2.78;3.02;3.17;3.15;2.92;2.55;2.11;1.58;1.04;0.527;0.0192;-0.5;-1;-1.48;-1.97;-2.42;-2.75;-3.02;-3.29;-3.62;-4.01;-4.43;-4.94;-5.43;-5.77;-5.98;-6.1;-6.13;-6.1;-6.02;-5.88;-5.71;-5.51;-5.26;-5.03;-4.9;-4.83;-4.79;-4.75;-4.75;-4.78;-4.85;-4.91;-4.88;-4.77;-4.59;-4.38;-4.26;-4.3;-4.47;-4.7;-4.96;-5.14;-5.18;-5.09;-4.8;-4.29;-3.61;-2.84;-2;-1.09;-0.158;0.675;1.31;1.68;1.77;1.58;1.11;0.409;-0.333;-0.982;-1.54;-2.05;-2.48;-2.8;-3.04;-3.19;-3.21;-3.12;-2.93;-2.58;-2.08;-1.46;-0.725;0.122;0.876;1.34;1.53;1.5;1.25;0.879;0.51;0.144;-0.244;-0.599;-0.84;-0.919;-0.871;-0.764;-0.637;-0.591;-0.651;-0.776;-1.01;-1.38;-1.86;-2.36;-2.77;-3.01;-3;-2.67;-2.04;-1.2;-0.251;0.687;1.53;2.18;2.57;2.69;2.55;2.17;1.7;1.12;0.352;-0.567;-1.56;-2.6;-3.71;-4.82;-5.85;-6.79;-7.56;-8.07;-8.34;-8.41;-8.27;-7.92;-7.47;-6.97;-6.45;-5.9;-5.3;-4.74;-4.3;-3.98;-3.76;-3.68;-3.76;-3.98;-4.33;-4.85;-5.53;-6.25;-6.96;-7.62;-8.19;-8.62;-8.84;-8.81;-8.46;-7.87;-7.14;-6.33;-5.52;-4.72;-3.95;-3.25;-2.58;-1.96;-1.38;-0.802;-0.213;0.302;0.656;0.821;0.781;0.565;0.237;-0.108;-0.385;-0.599;-0.728;-0.711;-0.558;-0.22;0.294;0.826;1.28;1.63;1.82;1.85;1.74;1.57;1.36;1.12;0.852;0.498;0.0263;-0.611;-1.45;-2.44;-3.48;-4.41;-5.13;-5.69;-6.13;-6.36;-6.24;-5.8;-5.24;-4.7;-4.26;-3.97;-3.9;-4.04;-4.31;-4.66;-5.02;-5.4;-5.8;-6.14;-6.36;-6.47;-6.58;-6.76;-6.97;-7.27;-7.7;-8.14;-8.49;-8.69;-8.7;-8.5;-8.02;-7.25;-6.28;-5.2;-4.06;-3.02;-2.24;-1.78;-1.56;-1.51;-1.56;-1.71;-1.9;-2.07;-2.19;-2.36;-2.63;-2.95;-3.3;-3.6;-3.81;-3.94;-3.95;-3.85;-3.7;-3.5;-3.24;-2.97;-2.72;-2.51;-2.37;-2.32;-2.36;-2.43;-2.54;-2.69;-2.9;-3.17;-3.46;-3.68;-3.81;-3.9;-4.03;-4.22;-4.55;-5.07;-5.77;-6.61;-7.43;-8.06;-8.43;-8.42;-7.94;-7.08;-5.99;-4.74;-3.41;-2.08;-0.946;-0.144;0.35;0.584;0.606;0.46;0.122;-0.441;-1.14;-1.91;-2.75;-3.65;-4.56;-5.36;-5.92;-6.16;-6.05
gyr_x;26.6;34.7;40.7;43.9;44.4;42.1;37.4;30.9;23;14.3;5.54;-2.35;-8.46;-12.1;-12.8;-10.9;-7.16;-2.58;1.85;5.46;8.05;9.77;10.9;11.8;12.5;12.9;12.9;12.2;10.6;8.11;4.75;0.885;-3.04;-6.68;-9.88;-12.9;-15.9;-19.3;-22.8;-25.6;-26.8;-25.5;-21.3;-14.6;-6.45;1.75;8.8;13.9;16.9;17.8;17.1;15;11.7;7.14;1.34;-5.6;-13.5;-21.8;-30;-37.2;-42.9;-46.6;-48.1;-47.8;-46.1;-43.3;-39.8;-35.4;-30;-23.5;-15.9;-7.46;1.49;10.4;18.8;26;31.6;35.2;36.7;36.3;34.1;30.4;25.7;20.3;14.6;9.27;4.96;2.31;1.75;3.4;7.08;12.4;18.7;25.9;33.5;41.5;49.6;57.4;64.4;69.9;73.4;74.6;73.2;69.2;62.7;53.7;42.6;29.9;16.5;3.17;-9.12;-19.6;-27.8;-33.1;-35.2;-34;-29.7;-22.7;-13.8;-4.07;5.11;12.5;17;18.2;15.8;10.3;2.43;-6.82;-16.7;-26.4;-35.5;-43.7;-50.8;-56.9;-62;-65.8;-68.2;-68.5;-66.4;-61.7;-54.4;-45.2;-34.9;-24;-13;-1.95;9;19.5;28.9;36.2;40.6;41.7;39.9;36;31.3;26.7;22.8;20;18.3;17.4;17.2;17.5;18.1;18.8;19.7;20.7;22.2;24.1;26.7;29.7;32.8;35.5;37.2;37.8;37.2;35.6;33.2;30.3;26.8;22.6;17.9;12.9;8.13;4.04;1.01;-0.923;-2.06;-2.85;-3.68;-4.73;-5.96;-7.2;-8.32;-9.33;-10.3;-11.3;-12.3;-13.4;-14.4;-15.8;-17.6;-20.2;-23.9;-28.5;-33.8;-39.3;-44.5;-48.9;-52;-53.3;-52.4;-49;-42.9;-34.6;-25;-15.2;-6.2;1.22;6.96;11.4;15.1;18.5;22;25.2;28.1;30.4;32.4;34.3;36.5;39.2;42.3;45.1;46.9;47.4;46.2;43.6;40;35.8;31.2;26.3;21.5;17;13.1;10;7.91;6.88;6.97;8.2;10.5;13.6;17.2;20.6;23.4;25.3;26.1;26;25;23.1;20.2;16.1;11;5.41;0.114;-4.17;-7.15;-9.07;-10.7;-12.8;-15.9;-20.2;-25.3;-30.7;-35.9;-40.9;-46;-51.1;-56.3;-61.3;-65;-66.6;-65.3;-60.7;-53;-42.8;-31;-18.7;-6.86;3.61;11.9;17.5;20.3;20.5;18.5;15.1;10.8;5.89;0.862;-3.8;-7.38;-9.07;-8.34;-5.17;-0.183;5.57;11;15.5;19;21.9;25;28.5;32.6;36.8;40.5;43.2;44.6;45.1;44.8;44;42.3;39.4;34.9;28.9;22.1;15.5;9.99;6.31;4.52;4.26;4.94;6.01;7.15;8.16;8.88;9.16;8.79;7.67;5.87;3.58;1.02;-1.63;-4.34;-7.17;-10.2;-13.5;-17.2;-21.4;-26.2;-31.9;-38.4;-45.2;-51.6;-56.4;-58.4;-56.7;-51;-41.7;-29.4;-15.6;-1.44;11.8;23;31.7;37.3;39.7;39.1;35.8;30.6;24.4;18.2;13;9.55;8.13;8.54;10.4;12.9;15.4;17.2;17.6;16.6;14.2;11.2;8.17;5.77;4.14;2.95;1.67;-0.214;-2.89;-6.2;-9.77;-13.3;-16.8;-20.4;-24.2;-27.9;-31;-32.9;-33.2;-31.6;-28.8;-25.4;-22.3;-19.8;-18.2;-17.7;-18;-19.4;-21.7;-24.9;-28.6;-32.3;-35.1;-36.4;-35.8;-33.1;-28.2;-21.2;-12.2;-1.65;9.91;21.4;31.6;39.7;45.5;49.2;51.6;53.1;54;54;52.8;50.3;47.1;44;42.1;42.1;43.9;46.9;50.1;52.6;53.8;53.4;51.5;48.3;43.9;38.5;32.2;25.4;18.3;11.4;4.77;-1.24;-6.58;-11.3;-15.2;-18.4;-20.9;-22.8;-24.4;-26;-28;-30.4;-33.3;-36.5;-39.9;-43.4;-46.7;-49.8;-52.2;-53.8;-54.3;-54.1;-53.5;-53.1;-53.2;-54;-54.9;-55.5;-55;-53.2;-50.2;-46.2;-41.8;-37.1;-32.1;-26.4;-19.9;-12.8;-5.42;1.48;7.34;11.9;15.2;17.7;19.8;21.9;24;26.2;28.4;30.6;32.9;35.5;38.2;40.9;43.6;46;48;49.5;50.2;50.3;49.8;49.1;48.5;48.1;47.6;46.4;43.6;38.4;30.5;20;7.79;-4.93;-16.8;-26.7;-34;-38.8;-41.1;-41.3;-39.5;-35.8;-30.3;-23.1;-14.8;-6.05;2.21;9.22;14.4;17.5;18.5;17.5;14.7;10.4;5.08;-0.786;-6.61;-11.9;-16.5;-20.2;-23.3;-25.7;-27.5;-28.5;-28.4;-27.3;-25.4;-23;-20.5;-18.4;-16.7;-15.4;-14;-12.3;-9.86;-6.65;-2.66;2;7.07;12.3;17.4;22;25.7;28.2;29;27.8;24.4;19.1;12.4;5.19;-1.77;-7.64;-12;-14.7;-16;-16.3;-16;-15.5;-15;-15;-15.6;-17.2;-19.6;-22.9;-26.8;-30.8;-34.4;-37.3;-38.9;-39;-37.5;-34.4;-29.6;-23.5;-16.7;-9.64;-3.11;2.32;6.17;8.24;8.57;7.47;5.51;3.33;1.62;0.877;1.38;3.12;5.83;9.06;12.3;15;16.8;17.6;17.4;16.2;14.1;11.5;8.6;5.94;4.08;3.52;4.49;6.71;9.52;12;13.3;13.2;11.9;10.1;8.45;7.24;6.54;6.24;6.32;6.93;8.26;10.4;13.3;16.4;19.4;21.8;23.1;23.3;22.4;20.4;17.3;13.2;8.37;2.96;-2.73;-8.6;-14.8;-21.6;-29.4;-38.4;-48;-57.4;-65.4;-70.7;-72.6;-70.9;-65.5;-57.2;-46.4;-33.8;-20.3;-6.51;6.35;17.1;24.4;27.6;26.2;20.8;12.4;2.29;-8.09;-17.8;-26.3;-33.6;-39.8;-45;-49;-51.5;-52;-50.2;-45.8;-38.8;-29.6;-18.9;-7.28;4.25;14.9;24.1;31.4;36.7;40;41.3;40.6;38;33.3;26.9;19.1;10.8;3.23;-2.7;-6.36;-7.64;-6.97;-4.97;-2.28;0.816;4.33;8.43;13.3;18.8;24.8;30.9;37;42.6;47.6;51.3;52.8;51.5;46.7;38.4;27.1;14;0.0687;-13.4;-25.6;-35.5;-42.5;-45.7;-44.9;-39.8;-31;-19.5;-6.79;5.29;15.2;21.6;23.9;22.2;17;9;-0.641;-10.9;-20.7;-29.2;-35.9;-40.3;-42.5;-42.9;-41.8;-39.7;-36.7;-33;-28.7;-23.9;-18.8;-13.6;-8.66;-3.98;0.252;3.87;6.59;8.12;8.23;6.99;4.75;2.08;-0.473;-2.55;-3.97;-4.78;-4.97;-4.54;-3.37;-1.43;1.2;4.09;6.57;7.96;7.71;5.65;2.03;-2.56;-7.25;-11.1;-13.5;-13.9;-12.2;-8.81;-4.12;1.24;6.58;11.3;15.1;18;20.1;21.7;23;23.8;23.8;22.9;21.1;18.8;16.7;15.5;15.2;15.5;15.9;15.8;14.8;13;10.8;8.43;6.18;4;1.73;-0.763;-3.51;-6.3;-8.74;-10.4;-10.9;-10.1;-8.29;-5.62;-2.5;0.656;3.34;5;5.14;3.49;0.153;-4.42;-9.48;-14.3;-18.5;-21.7;-23.9;-25.3;-25.8;-25.2;-23.4;-20.3;-16.4;-12.2;-8.47;-5.74;-4.39;-4.37;-5.36;-6.8;-8.07;-8.64;-8.17;-6.6;-4.21;-1.55;0.717;2.04;2.17;1.33;0.0381;-1.04;-1.37;-0.732;0.786;2.85;5.01;6.89;8.26;9.11;9.7;10.4;11.3;12.7;14.4;16;17.3;18.3;19.1;20;21.3;23.2;25.9;29;31.9;33.9;34.3;32.6;28.7;22.9;15.7;8.03;0.549;-6.09;-11.6;-15.9;-19.3;-21.9;-23.8;-25.2;-26.1;-26.2;-25.4;-23.7;-20.9;-17.2;-12.6;-7.17;-1.15;4.97;10.6;14.9;17.3;17.6;15.5;11.1;4.84;-3.01;-11.9;-21;-29.3;-35.7;-39.3;-39.7;-36.8;-31.2;-23.7;-15.4;-6.83;1.32;8.6;14.6;18.8;20.8;20.4;17.7;12.9;6.86;0.275;-5.91;-10.9;-14.1;-15.1;-13.9;-10.5;-5.16;1.56;9.09;16.7;23.5;28.9;32.4;33.9;33.5;31.3;27.9;23.6;19;14.5;10.3;6.71;3.52;0.702;-1.72;-3.65;-5.03;-5.96;-6.71;-7.63;-8.87;-10.3;-11.6;-12.2;-11.9;-10.3;-7.56;-3.7;0.946;5.85;10.3;13.6;14.9;14.2;11.3;7.02;1.83;-3.68;-9.2;-14.7;-20.1;-25.4;-30.2;-33.7;-35.4;-34.8;-31.8;-26.9;-20.8;-14.4;-8.37;-3.42;0.237;2.58;3.73;3.83;2.91;0.9;-2.31;-6.69;-11.9;-17.3;-21.8;-24.4;-24.5;-21.9;-16.9;-10.1;-2.37;5.56;13.1;19.8;25.5;29.9;32.9;34.5;34.5;32.9;30;25.8;20.6;14.8;8.64;2.63;-2.75;-7.01;-9.81;-11;-10.8;-9.26;-6.67;-3.04;1.66;7.32;13.7;20.3;26.5;31.4;34.8;36.1;35.3;32.7;28.7;23.6;18.1;12.5;6.9;1.37;-4.24;-10.1;-16.1;-22.1;-27.6;-32;-34.9;-35.8;-34.7;-31.9;-28;-23.6;-19.4;-15.9;-13.5;-12.5;-12.9;-14.7;-17.9;-22;-26.8;-31.5;-35.6;-38.5;-39.8;-39.2;-36.8;-33;-28.2;-23;-17.9;-13;-8.36;-4.06;-0.183;3;5.18;6.15;5.91;4.68;2.78;0.542;-1.78;-3.9;-5.49;-6.2;-5.73;-3.88;-0.633;3.89;9.4;15.4;21.5;27.1;31.7;35.3;37.8;39.1;39.5;39.2;38.3;36.7;34.4;31.1;26.6;21.2;15.1;9.06;3.69;-0.42;-2.98;-3.97;-3.47;-1.57;1.71;6.33;12;18.2;24.1;28.5;30.7;30.2;26.9;21.4;14.3;6.47;-1.27;-8.33;-14.2;-18.7;-21.7;-23;-23;-21.9;-20.3;-18.7;-18;-18.7;-21.1;-25.2;-30.4;-35.8;-40.5;-43.9;-45.7;-46;-45.1;-43.3;-40.8;-37.9;-34.5;-30.7;-26.6;-22.4;-18.4;-14.7;-11.5;-8.74;-6.07;-3.24;-0.0458;3.49;7.1;10.3;12.8;14.2;14.5;14;13.4;13;13.4;14.5;16;17.5;18.8;19.5;19.6;19.3;18.6;17.5;16;14.2;12.4;10.8;9.78;9.22;8.96;8.77;8.51;8.22;8.09;8.31;8.98;10.1;11.4;12.8;14;15;15.5;15.6;15.1;13.8;11.8;9.12;5.86;2.2;-1.62;-5.34;-8.61;-11.1;-12.6;-13.1;-12.8;-11.9;-11.1;-10.7;-11.1;-12.2;-13.9;-15.7;-17.2;-17.7;-17.3;-15.9;-14.1;-12.4;-11.3;-10.8;-11;-11.7;-12.7;-14;-15.6;-17;-17.9;-17.7;-15.9;-12.2;-6.8;-0.0381;7.45;14.9;21.5;26.4;29.1;29.5;27.7;24.1;19.3;14;8.71;4.15;0.916;-0.435;0.488;3.74;8.99;15.6;23;30.4;37.4;43.5;48.5;51.9;53.2;52;48;41.5;33.1;24.1;15.4;8.21;2.89;-0.496;-2.29;-3.02;-3.14;-2.95;-2.56;-1.95;-1.13;-0.252;0.389;0.465;-0.267;-1.82;-3.99;-6.45;-8.84;-10.8;-12.3;-13.2;-13.7;-14.1;-14.7;-15.6;-17.1;-19.1;-21.3;-23.6;-25.3;-26.3;-26.5;-26.2;-25.8;-25.9;-26.6;-27.7;-28.9;-29.6;-29.6;-28.8;-27.4;-25.5;-23.2;-20.1;-16.1;-11;-5.13;0.961;6.44;10.6;13.2;14.4;14.7;14.8;15.4;17;19.8;23.7;28.2;32.6;36.1;38.1;38.4;37.1;34.5;31.2;27.5;23.8;20.7;18.4;17.6;18.7;22.2;28;35.6;44.1;52;58.2;61.6;61.6;58.3;52.3;44.6;35.9;27.1;18.7;11;4.33;-0.999;-4.75;-6.84;-7.37;-6.65;-5.06;-2.98;-0.74;1.35;2.96;3.82;3.84;3.17;2.23;1.47;1.19;1.34;1.64;1.66;1.05;-0.168;-1.7;-3;-3.56;-3.14;-2.01;-0.71;0.061;-0.252;-1.96;-5.04;-9.16;-13.8;-18.3;-21.9;-24.1;-24.4;-22.8;-19.4;-14.6;-9.19;-3.67;1.44;5.87;9.51;12.3;14;14.4;13.2;10.2;5.52;-0.275;-6.47;-12.3;-17.2;-21;-23.8;-25.9;-27.4;-28.2;-28.2;-27.3;-25.4;-22.3;-18.1;-12.7;-6.29;0.778;8.02;14.9;20.9;25.7;29.2;31.3;32.1;31.8;30.4;28.4;26;23.6;21.4;19.9;19.3;19.9;21.7;24.5;28.1;32;35.7;38.8;41.1;42.7;43.6;44.3;44.9;45.8;46.7;47.3;47.3;46.2;43.9;40.6;36.7;32.3;27.7;22.9;17.8;12.6;7.84;3.88;1.27;0.206;0.557;1.82;3.39;4.7;5.43;5.5;4.94;3.78;1.99;-0.641;-4.32;-9.13;-14.9;-21;-26.9;-31.9;-35.6;-38;-39.2;-39.2;-38.2;-36.1;-32.9;-28.7;-23.9;-18.7;-13.6;-9.01;-5.33;-2.8;-1.51;-1.32;-1.81;-2.36;-2.29;-1.16;1.05;3.91;6.67;8.55;9.02;7.93;5.62;2.72;0.0305;-1.66;-1.7;0.351;4.59;10.8;18.3;26.3;33.9;40.1;44.3;46.3;46;43.5;39.2;33.8;27.7;21.8;16.7;13.1;11;10.6;11.4;12.6;13.5;13.3;11.7;8.64;4.59;0.183;-3.9;-7.05;-8.96;-9.61;-9.22;-8.16;-6.92;-5.86;-5.26;-5.14;-5.32;-5.45;-5.24;-4.58;-3.65;-2.89;-2.84;-3.95;-6.42;-10.1;-14.4;-18.5;-21.6;-23;-22.3;-19.3;-14.3;-7.59;0.534;9.67;19.4;29;37.9;45.2;50.2;52.5;52;49;44
gyr_y;13.7;12.7;11.6;10.6;9.8;9.42;9.42;9.67;9.99;10.2;10.1;9.54;8.47;6.88;4.86;2.55;0.107;-2.27;-4.4;-6.14;-7.39;-8.1;-8.35;-8.25;-7.93;-7.54;-7.2;-7;-6.92;-6.92;-6.93;-6.88;-6.75;-6.58;-6.4;-6.32;-6.4;-6.73;-7.33;-8.2;-9.28;-10.5;-11.8;-13.1;-14.4;-15.7;-16.8;-17.7;-18.2;-18.2;-17.6;-16.3;-14.3;-11.8;-8.78;-5.46;-1.98;1.53;5.01;8.39;11.7;14.8;17.8;20.5;22.8;24.7;25.9;26.4;26.1;25;23.1;20.5;17.3;13.5;9.25;4.52;-0.549;-5.83;-11.2;-16.6;-21.8;-26.7;-31.3;-35.3;-38.8;-41.8;-44.2;-46.2;-47.7;-48.8;-49.5;-49.9;-49.9;-49.5;-48.4;-46.8;-44.4;-41.4;-37.9;-33.9;-29.7;-25.5;-21.3;-17.4;-13.6;-9.97;-6.43;-2.87;0.763;4.49;8.26;12;15.4;18.5;21.1;23.1;24.7;25.8;26.7;27.4;28.1;29;30.2;31.7;33.4;35.4;37.3;39.2;40.7;41.6;41.9;41.5;40.2;38.3;35.6;32.4;28.7;24.6;20.3;15.6;10.6;5.23;-0.565;-6.76;-13.3;-20;-26.7;-33.2;-39.2;-44.5;-48.9;-52.3;-54.6;-55.7;-55.8;-55.1;-53.8;-52.2;-50.5;-48.8;-47;-45.1;-42.8;-40;-36.7;-32.6;-27.9;-22.8;-17.3;-11.8;-6.48;-1.61;2.72;6.46;9.67;12.5;15;17.4;19.7;22.1;24.4;26.4;28.1;29.3;30;30.2;29.9;29.2;28.2;27.1;26.1;25.2;24.4;23.7;22.8;21.7;20.1;18;15.3;12.1;8.48;4.6;0.626;-3.21;-6.73;-9.8;-12.4;-14.6;-16.4;-18;-19.6;-21.2;-23.1;-25.4;-27.9;-30.7;-33.4;-35.8;-37.6;-38.6;-38.7;-37.9;-36.4;-34.3;-31.8;-29.2;-26.5;-23.8;-21.1;-18.4;-15.5;-12.5;-9.37;-6.03;-2.56;1.01;4.65;8.34;12;15.7;19.3;22.7;25.9;28.6;30.9;32.5;33.6;34.1;34;33.5;32.5;31.2;29.5;27.5;25.1;22.4;19.4;16.1;12.6;8.91;5.19;1.52;-1.98;-5.23;-8.19;-10.9;-13.3;-15.6;-17.8;-19.8;-21.5;-23.1;-24.3;-25.3;-26.1;-26.6;-26.9;-26.9;-26.7;-26.3;-25.7;-24.9;-24.2;-23.5;-23;-22.6;-22.4;-22.2;-22;-21.5;-20.7;-19.4;-17.7;-15.4;-12.8;-9.95;-7.02;-4.14;-1.37;1.28;3.82;6.29;8.71;11.1;13.6;16.1;18.7;21.5;24.3;27.2;29.8;32.1;33.8;35;35.4;35.1;34.1;32.5;30.3;27.7;24.7;21.6;18.4;15.2;12;8.81;5.48;1.93;-1.88;-5.94;-10.2;-14.4;-18.6;-22.3;-25.5;-28;-29.8;-30.9;-31.5;-31.7;-31.7;-31.7;-31.7;-31.7;-31.6;-31.3;-30.7;-29.7;-28.1;-25.9;-23.4;-20.7;-18;-15.5;-13.5;-12.1;-11.4;-11.3;-11.5;-11.9;-12.1;-11.7;-10.6;-8.67;-5.9;-2.45;1.46;5.57;9.57;13.2;16.5;19.2;21.6;23.7;25.8;27.9;30.1;32.4;34.7;36.9;38.8;40.2;41;41.1;40.3;38.6;36.1;32.9;29.3;25.4;21.5;17.7;14;10.5;7.01;3.53;-0.0381;-3.74;-7.59;-11.6;-15.6;-19.6;-23.2;-26.2;-28.5;-30;-30.8;-30.8;-30.3;-29.4;-28.2;-26.9;-25.6;-24.5;-23.5;-22.6;-21.9;-21.2;-20.5;-19.7;-18.9;-17.9;-17;-15.9;-14.8;-13.5;-12.1;-10.7;-9.17;-7.59;-5.94;-4.18;-2.3;-0.313;1.72;3.75;5.7;7.54;9.24;10.8;12.3;13.7;15.1;16.6;18.1;19.5;20.7;21.5;22;21.9;21.2;20;18.2;16.1;13.6;11.1;8.51;5.94;3.42;0.938;-1.5;-3.88;-6.19;-8.38;-10.4;-12.1;-13.5;-14.4;-14.9;-14.9;-14.4;-13.7;-12.7;-11.6;-10.4;-9.02;-7.52;-5.84;-3.99;-2.04;-0.061;1.82;3.54;5.06;6.37;7.5;8.46;9.28;9.97;10.6;11.1;11.4;11.7;11.7;11.4;10.8;9.91;8.69;7.27;5.72;4.14;2.59;1.14;-0.175;-1.37;-2.43;-3.42;-4.33;-5.2;-6;-6.77;-7.54;-8.34;-9.22;-10.1;-11.1;-12;-12.7;-13.1;-13.1;-12.7;-11.9;-10.8;-9.63;-8.53;-7.71;-7.27;-7.24;-7.51;-7.9;-8.24;-8.36;-8.17;-7.61;-6.71;-5.52;-4.1;-2.57;-1.02;0.496;1.98;3.46;4.97;6.55;8.26;10.1;12;13.9;15.8;17.4;18.8;19.8;20.5;20.7;20.5;20;19.2;18.1;16.9;15.5;14;12.3;10.4;8.25;5.84;3.18;0.275;-2.8;-5.91;-8.93;-11.8;-14.3;-16.4;-18.1;-19.4;-20.3;-21;-21.3;-21.5;-21.5;-21.4;-21.1;-20.7;-20.2;-19.4;-18.5;-17.3;-15.8;-13.9;-11.8;-9.44;-6.97;-4.53;-2.26;-0.229;1.51;2.95;4.09;4.94;5.55;6;6.36;6.71;7.12;7.63;8.27;9.07;10;11.2;12.3;13.4;14.4;15;15.4;15.5;15.2;14.6;13.8;12.8;11.8;10.9;10.1;9.51;9.03;8.59;8.06;7.35;6.32;4.91;3.11;0.923;-1.59;-4.32;-7.14;-9.9;-12.4;-14.6;-16.4;-18;-19.3;-20.7;-22.3;-24.1;-26.2;-28.4;-30.7;-32.8;-34.7;-36.1;-37;-37.3;-37.1;-36.3;-35.2;-34;-32.6;-31.2;-29.9;-28.4;-26.7;-24.8;-22.5;-19.8;-16.6;-13.1;-9.22;-5.27;-1.41;2.15;5.23;7.71;9.58;10.9;11.9;12.6;13.2;13.8;14.5;15.4;16.6;18.1;19.9;21.9;23.9;25.7;27.1;28.1;28.5;28.4;27.8;26.9;26;25.2;24.6;24.1;23.7;23.2;22.5;21.4;20;18.2;16.2;14.1;12.1;10.4;8.92;7.77;6.8;5.87;4.82;3.49;1.71;-0.603;-3.46;-6.81;-10.5;-14.4;-18.2;-21.8;-24.9;-27.4;-29.2;-30.5;-31.4;-31.9;-32.4;-32.8;-33.2;-33.6;-34;-34.2;-34;-33.3;-31.9;-29.7;-26.8;-23.3;-19.4;-15.5;-11.8;-8.6;-6.01;-4.13;-2.92;-2.32;-2.17;-2.25;-2.34;-2.2;-1.63;-0.526;1.09;3.11;5.36;7.61;9.64;11.3;12.4;12.9;12.9;12.5;12;11.5;11.1;10.8;10.7;10.6;10.3;9.66;8.38;6.4;3.79;0.732;-2.5;-5.63;-8.41;-10.6;-12.2;-13.3;-13.8;-14.1;-14.5;-15;-15.8;-16.9;-18.2;-19.4;-20.2;-20.6;-20.2;-19.1;-17.3;-14.9;-12;-8.75;-5.43;-2.2;0.763;3.31;5.37;6.94;8.04;8.8;9.35;9.82;10.3;10.9;11.4;11.8;12.1;12.1;11.8;11.2;10.4;9.39;8.35;7.42;6.67;6.13;5.81;5.66;5.62;5.62;5.63;5.63;5.58;5.49;5.33;5.12;4.85;4.55;4.24;3.88;3.43;2.81;1.94;0.763;-0.786;-2.69;-4.89;-7.25;-9.59;-11.7;-13.5;-14.9;-15.7;-16.2;-16.4;-16.4;-16.3;-16.2;-16.1;-16.1;-15.9;-15.7;-15.3;-14.7;-13.9;-12.9;-11.7;-10.4;-8.92;-7.41;-5.87;-4.39;-3.04;-1.91;-1.09;-0.587;-0.374;-0.374;-0.465;-0.511;-0.42;-0.137;0.298;0.824;1.36;1.82;2.13;2.26;2.22;2.09;1.97;1.97;2.17;2.59;3.2;3.96;4.75;5.48;6.03;6.34;6.41;6.3;6.07;5.79;5.49;5.16;4.84;4.54;4.27;4.04;3.85;3.65;3.43;3.07;2.49;1.65;0.488;-0.946;-2.57;-4.26;-5.88;-7.3;-8.43;-9.27;-9.85;-10.3;-10.6;-11;-11.5;-12.2;-12.9;-13.6;-14.1;-14.3;-14;-13.2;-11.9;-10.2;-8.07;-5.78;-3.4;-1.08;1.07;2.98;4.63;6.01;7.16;8.12;8.93;9.64;10.3;10.9;11.5;11.9;12.3;12.4;12.4;12.2;11.8;11.2;10.5;9.48;8.26;6.81;5.13;3.26;1.22;-0.938;-3.16;-5.36;-7.45;-9.28;-10.8;-11.8;-12.4;-12.4;-12.1;-11.5;-10.6;-9.63;-8.65;-7.79;-7.11;-6.63;-6.32;-6.14;-6;-5.9;-5.78;-5.65;-5.5;-5.34;-5.18;-5.07;-5.04;-5.12;-5.29;-5.49;-5.63;-5.6;-5.33;-4.77;-3.93;-2.84;-1.56;-0.206;1.11;2.24;3.14;3.78;4.22;4.55;4.82;5.09;5.34;5.53;5.59;5.44;5.01;4.3;3.3;2.1;0.816;-0.443;-1.58;-2.56;-3.37;-4.06;-4.65;-5.2;-5.73;-6.26;-6.78;-7.29;-7.78;-8.29;-8.77;-9.22;-9.57;-9.78;-9.78;-9.56;-9.1;-8.43;-7.59;-6.63;-5.58;-4.46;-3.3;-2.1;-0.847;0.511;2;3.62;5.33;7.01;8.61;10;11.2;12.2;12.9;13.5;14;14.5;15;15.4;15.8;16.1;16.3;16.4;16.5;16.5;16.4;16.1;15.5;14.6;13.3;11.6;9.69;7.55;5.34;3.19;1.15;-0.74;-2.5;-4.22;-5.94;-7.76;-9.7;-11.8;-13.9;-15.9;-17.7;-19.2;-20.1;-20.4;-20.2;-19.5;-18.4;-17.2;-16.1;-15.1;-14.3;-13.7;-13.1;-12.6;-12;-11.1;-10;-8.63;-7.01;-5.29;-3.59;-2.04;-0.702;0.397;1.32;2.14;2.98;3.94;5.02;6.24;7.52;8.75;9.8;10.5;10.8;10.6;9.95;8.93;7.73;6.48;5.3;4.26;3.36;2.54;1.7;0.717;-0.496;-1.96;-3.62;-5.36;-7.01;-8.44;-9.57;-10.3;-10.8;-11.1;-11.3;-11.6;-12.2;-13.2;-14.5;-16;-17.6;-19;-20.1;-20.7;-20.6;-19.9;-18.6;-16.8;-14.7;-12.4;-10.3;-8.47;-6.88;-5.54;-4.33;-3.17;-1.92;-0.519;1.09;2.91;4.94;7.15;9.48;11.9;14.2;16.5;18.5;20.2;21.6;22.7;23.4;24;24.3;24.5;24.5;24.3;23.9;23.2;22.3;21;19.6;18;16.2;14.3;12.3;10.3;8.41;6.56;4.81;3.19;1.69;0.328;-0.969;-2.28;-3.7;-5.29;-7.06;-8.98;-11;-12.9;-14.6;-16.1;-17.4;-18.4;-19.2;-20;-20.9;-21.8;-22.8;-23.8;-24.9;-25.7;-26.4;-26.7;-26.7;-26.3;-25.7;-24.9;-24;-23.2;-22.5;-21.8;-21.1;-20.4;-19.4;-18.2;-16.5;-14.4;-12;-9.29;-6.55;-3.93;-1.53;0.519;2.2;3.53;4.61;5.56;6.55;7.71;9.1;10.7;12.6;14.5;16.3;17.8;18.6;18.9;18.6;17.9;17;16;15.3;14.7;14.4;14.2;14;13.6;13;12.1;10.8;9.06;6.97;4.67;2.33;0.107;-1.85;-3.49;-4.81;-5.85;-6.65;-7.32;-7.92;-8.55;-9.27;-10.1;-10.9;-11.8;-12.7;-13.6;-14.6;-15.5;-16.6;-17.7;-18.6;-19.5;-20;-20.2;-20;-19.5;-18.5;-17.1;-15.3;-13.2;-10.9;-8.45;-6.1;-3.91;-1.97;-0.29;1.16;2.52;3.93;5.55;7.43;9.58;11.9;14.3;16.5;18.5;20.2;21.4;22.2;22.6;22.5;22.1;21.5;20.7;19.9;19;18.1;16.9;15.6;14;12.3;10.3;8.29;6.2;4.16;2.3;0.671;-0.664;-1.72;-2.59;-3.38;-4.23;-5.23;-6.44;-7.84;-9.39;-11;-12.6;-14.2;-15.6;-16.9;-18;-18.9;-19.5;-20;-20.4;-20.7;-21;-21.3;-21.6;-22;-22.3;-22.5;-22.3;-21.6;-20.4;-18.5;-16;-13;-9.61;-6.04;-2.47;0.931;4.01;6.68;8.91;10.7;12.3;13.5;14.6;15.7;16.9;18.2;19.5;20.8;21.9;22.5;22.5;21.8;20.3;18.1;15.4;12.3;9.17;6.1;3.26;0.671;-1.72;-4.01;-6.28;-8.61;-11;-13.5;-16;-18.3;-20.4;-22.1;-23.2;-23.8;-23.9;-23.6;-23.1;-22.3;-21.6;-20.9;-20.4;-20.2;-20.1;-20;-19.8;-19.3;-18.3;-16.9;-15;-12.8;-10.4;-7.94;-5.65;-3.63;-1.88;-0.351;1.11;2.67;4.51;6.76;9.49;12.6;16.1;19.7;23.2;26.4;29.4;32;34.3;36.1;37.5;38.5;39.1;39.2;38.8;37.8;36.4;34.3;31.7;28.6;25;21;16.8;12.4;7.88;3.4;-0.969;-5.13;-9.05;-12.7;-16.1;-19.2;-22;-24.6;-26.8;-28.8;-30.4;-31.8;-32.9;-33.8;-34.5;-34.9;-35.2;-35.1;-34.8;-34;-32.9;-31.4;-29.7;-28;-26.3;-24.7;-23.3;-22.2;-21.1;-20;-18.7;-17.1;-15;-12.5;-9.58;-6.39;-3.12;0.0229;2.87;5.33;7.4;9.19;10.8;12.4;14.2;16.1;18.3;20.8;23.2;25.5;27.5;29;29.9;30.3;30.1;29.4;28.5;27.5;26.2;24.8;23.3;21.4;19.2;16.6;13.6;10.3;6.83;3.43;0.221;-2.66;-5.1;-7.07;-8.57;-9.67;-10.5;-11.3;-12.2;-13.2;-14.4;-15.5;-16.5;-17.1;-17.2;-16.8;-15.8;-14.4;-12.8;-11.2;-9.91;-9.05;-8.71;-8.83;-9.17;-9.46;-9.41;-8.8;-7.57;-5.76;-3.54;-1.1;1.32;3.49;5.23;6.48;7.23;7.58;7.67;7.63;7.58;7.61;7.76;8.01;8.27;8.44;8.38;8;7.23;6.04;4.49;2.66;0.702;-1.26;-3.07;-4.66;-5.97;-7.02;-7.91;-8.79;-9.79;-11;-12.5;-14.2;-15.9;-17.5;-18.7;-19.4;-19.5;-19.1;-18.2;-17.3;-16.4;-15.8;-15.5;-15.5;-15.7;-15.9;-15.8;-15.4;-14.4;-12.8;-10.6;-7.9;-4.91
gyr_z;2.12;-1.08;-4.31;-7.18;-9.31;-10.5;-10.6;-9.9;-8.51;-6.75;-4.89;-3.14;-1.66;-0.496;0.328;0.877;1.23;1.48;1.75;2.16;2.76;3.56;4.42;5.17;5.6;5.56;4.91;3.61;1.7;-0.664;-3.26;-5.82;-8.13;-10;-11.5;-12.6;-13.4;-13.9;-14.2;-14.2;-13.7;-12.8;-11.5;-9.89;-8.05;-6.11;-4.16;-2.25;-0.366;1.53;3.46;5.43;7.33;9.01;10.3;11;11;10.2;8.79;6.84;4.54;2.09;-0.404;-2.86;-5.23;-7.48;-9.57;-11.5;-13.2;-14.6;-15.8;-16.6;-17.1;-17.2;-16.9;-16.2;-15.1;-13.6;-11.9;-10.1;-8.14;-6.13;-4.1;-2.07;-0.0763;1.81;3.49;4.82;5.68;5.94;5.52;4.41;2.66;0.481;-1.87;-4.11;-6.02;-7.45;-8.43;-9.07;-9.57;-10.1;-10.8;-11.6;-12.4;-13.1;-13.5;-13.3;-12.4;-10.8;-8.64;-6.07;-3.29;-0.542;1.98;4.14;5.84;7.07;7.9;8.39;8.66;8.79;8.85;8.87;8.87;8.78;8.52;7.96;6.98;5.54;3.64;1.34;-1.27;-4.04;-6.8;-9.33;-11.4;-12.9;-13.8;-14;-13.6;-13;-12.2;-11.6;-11;-10.6;-10.2;-9.61;-8.83;-7.75;-6.34;-4.59;-2.5;-0.16;2.24;4.42;6.05;6.87;6.68;5.47;3.33;0.534;-2.54;-5.46;-7.83;-9.35;-9.93;-9.62;-8.64;-7.27;-5.84;-4.58;-3.64;-3.06;-2.74;-2.5;-2.14;-1.5;-0.473;0.893;2.5;4.23;5.89;7.29;8.29;8.8;8.85;8.54;8.07;7.61;7.34;7.36;7.68;8.19;8.65;8.82;8.48;7.51;5.9;3.74;1.2;-1.48;-4.01;-6.12;-7.54;-8.06;-7.64;-6.3;-4.23;-1.75;0.717;2.8;4.16;4.59;4.06;2.66;0.679;-1.48;-3.4;-4.74;-5.29;-5.01;-4.03;-2.56;-0.877;0.755;2.17;3.3;4.13;4.73;5.19;5.56;5.91;6.26;6.63;7.07;7.62;8.26;8.97;9.69;10.3;10.8;11.1;11.2;10.9;10.5;9.72;8.81;7.83;6.81;5.82;4.92;4.18;3.66;3.36;3.3;3.43;3.73;4.14;4.65;5.26;6.07;7.12;8.43;9.9;11.4;12.6;13.4;13.8;13.6;12.9;11.7;10.1;8.12;5.93;3.62;1.34;-0.793;-2.59;-3.97;-4.85;-5.29;-5.39;-5.29;-5.14;-5;-4.87;-4.68;-4.33;-3.74;-2.79;-1.43;0.359;2.52;4.93;7.42;9.8;11.9;13.7;15.1;16.1;16.8;17;17;16.8;16.4;16;15.6;15.4;15.4;15.3;15;14.5;13.6;12.3;10.6;8.65;6.62;4.67;2.99;1.74;1.1;1.2;2.11;3.78;6.03;8.61;11.1;13.3;14.9;15.8;16.1;15.9;15.4;14.8;14.2;13.6;13.1;12.5;11.6;10.2;8.23;5.78;2.94;-0.0153;-2.82;-5.17;-6.83;-7.63;-7.51;-6.54;-4.89;-2.86;-0.786;0.969;2.12;2.51;2.17;1.33;0.351;-0.328;-0.351;0.526;2.37;5.04;8.24;11.6;14.8;17.5;19.4;20.5;20.7;20.4;19.5;18.4;17.2;16;15;14.1;13.4;12.8;12.1;11.2;9.99;8.39;6.4;4.15;1.9;-0.0534;-1.4;-1.91;-1.5;-0.221;1.77;4.23;6.87;9.43;11.6;13.2;14.1;14.2;13.7;12.7;11.6;10.6;9.7;9.06;8.55;8.03;7.35;6.42;5.18;3.66;1.95;0.16;-1.54;-3;-4.07;-4.65;-4.7;-4.27;-3.41;-2.19;-0.671;1.12;3.15;5.33;7.55;9.67;11.6;13.2;14.6;15.8;16.9;17.8;18.4;18.8;18.6;18;16.9;15.6;14.1;12.6;11.3;10.2;9.28;8.51;7.82;7.08;6.23;5.2;4.02;2.81;1.71;0.9;0.542;0.687;1.3;2.3;3.53;4.82;6.05;7.1;7.93;8.57;9.03;9.39;9.67;9.88;9.96;9.86;9.47;8.71;7.54;6.03;4.31;2.57;1.01;-0.237;-1.1;-1.63;-1.87;-1.9;-1.74;-1.38;-0.801;0;1.01;2.2;3.49;4.83;6.14;7.34;8.35;9.09;9.54;9.64;9.45;9.04;8.55;8.15;7.95;8.04;8.41;9;9.67;10.3;10.9;11.3;11.5;11.5;11.2;10.7;10;8.98;7.68;6.16;4.6;3.2;2.18;1.69;1.8;2.43;3.36;4.33;5.07;5.36;5.17;4.58;3.78;2.98;2.41;2.23;2.49;3.2;4.26;5.5;6.72;7.76;8.51;8.93;9.11;9.16;9.22;9.44;9.86;10.4;11.1;11.7;12.2;12.5;12.4;12;11.2;10.1;8.74;7.26;5.84;4.57;3.57;2.91;2.59;2.57;2.75;3.01;3.31;3.6;3.91;4.29;4.81;5.52;6.45;7.58;8.81;10.1;11.3;12.3;13.1;13.6;13.6;13.2;12.4;11.1;9.49;7.68;5.84;4.14;2.71;1.65;0.984;0.679;0.671;0.877;1.18;1.51;1.82;2.09;2.38;2.74;3.2;3.79;4.52;5.41;6.45;7.65;8.99;10.4;11.8;13.2;14.4;15.3;15.8;15.9;15.5;14.8;13.5;12;10.3;8.62;7.21;6.22;5.75;5.82;6.34;7.19;8.24;9.32;10.3;11;11.3;11;10.3;9.17;7.77;6.31;5.04;4.14;3.7;3.65;3.81;3.94;3.85;3.37;2.49;1.29;-0.0687;-1.34;-2.26;-2.62;-2.37;-1.52;-0.221;1.34;2.92;4.33;5.36;5.89;5.9;5.39;4.48;3.33;2.16;1.13;0.397;0.0305;0;0.183;0.397;0.42;0.0992;-0.633;-1.7;-2.98;-4.27;-5.42;-6.27;-6.71;-6.64;-6;-4.8;-3.04;-0.801;1.75;4.39;6.84;8.8;10.1;10.5;10.2;9.25;8.04;6.86;5.96;5.5;5.49;5.78;6.1;6.23;5.94;5.13;3.87;2.33;0.763;-0.542;-1.38;-1.63;-1.32;-0.626;0.221;1.01;1.51;1.62;1.26;0.458;-0.694;-2.02;-3.28;-4.23;-4.65;-4.36;-3.31;-1.58;0.656;3.08;5.36;7.19;8.32;8.61;8.02;6.61;4.58;2.23;-0.0839;-2.01;-3.26;-3.72;-3.44;-2.59;-1.46;-0.351;0.496;0.885;0.717;-0.0153;-1.23;-2.73;-4.25;-5.49;-6.14;-6.02;-5.05;-3.29;-0.916;1.79;4.46;6.78;8.47;9.33;9.35;8.6;7.29;5.68;4.07;2.74;1.8;1.27;0.977;0.687;0.145;-0.793;-2.19;-3.96;-5.91;-7.74;-9.1;-9.68;-9.26;-7.79;-5.4;-2.36;0.9;3.94;6.36;7.9;8.51;8.27;7.39;6.17;4.91;3.85;3.17;2.88;2.91;3.14;3.4;3.49;3.29;2.69;1.67;0.275;-1.37;-3.11;-4.74;-6.02;-6.79;-6.92;-6.36;-5.14;-3.41;-1.36;0.771;2.77;4.52;6.01;7.29;8.47;9.63;10.8;11.8;12.8;13.5;13.8;13.8;13.3;12.4;11.2;9.62;7.87;6.02;4.17;2.46;1.03;-0.00763;-0.664;-1.01;-1.14;-1.21;-1.29;-1.42;-1.56;-1.65;-1.54;-1.1;-0.198;1.24;3.16;5.44;7.84;10.1;11.8;13;13.4;13.2;12.4;11.2;9.8;8.19;6.46;4.7;2.98;1.41;0.0839;-0.908;-1.5;-1.73;-1.66;-1.38;-0.969;-0.496;0.0153;0.58;1.26;2.16;3.38;4.97;6.88;8.96;11;12.7;13.9;14.5;14.4;13.9;13;11.9;11;10.1;9.41;8.82;8.28;7.74;7.18;6.58;6;5.52;5.21;5.14;5.32;5.72;6.29;6.97;7.75;8.61;9.49;10.3;11.1;11.5;11.6;11.3;10.4;9.14;7.56;5.88;4.31;3.07;2.29;2.05;2.33;3.03;3.94;4.8;5.43;5.72;5.67;5.41;5.12;4.98;5.16;5.7;6.58;7.7;8.91;10.1;11.1;11.8;12.2;12.4;12.2;11.7;10.8;9.77;8.6;7.42;6.32;5.33;4.46;3.76;3.22;2.84;2.63;2.63;2.85;3.3;3.97;4.81;5.77;6.81;7.85;8.84;9.72;10.4;11;11.3;11.4;11.4;11.4;11.4;11.5;11.8;12.1;12.3;12.5;12.4;11.9;11;9.67;8;6.13;4.2;2.43;0.931;-0.191;-0.885;-1.13;-0.916;-0.313;0.61;1.73;2.98;4.32;5.71;7.14;8.54;9.83;10.9;11.8;12.4;12.8;12.7;12.3;11.4;9.93;8.03;5.84;3.59;1.55;-0.0687;-1.13;-1.63;-1.69;-1.49;-1.2;-0.954;-0.809;-0.732;-0.664;-0.519;-0.237;0.168;0.664;1.17;1.62;1.94;2.17;2.34;2.53;2.72;2.89;2.99;2.97;2.83;2.58;2.26;1.94;1.66;1.46;1.34;1.21;1.05;0.771;0.374;-0.114;-0.595;-0.938;-0.999;-0.732;-0.13;0.74;1.76;2.81;3.73;4.44;4.92;5.21;5.4;5.55;5.66;5.72;5.7;5.55;5.26;4.81;4.23;3.56;2.85;2.15;1.47;0.793;0.107;-0.626;-1.38;-2.11;-2.69;-2.97;-2.84;-2.24;-1.16;0.275;1.86;3.35;4.45;4.97;4.79;3.97;2.63;1.01;-0.656;-2.11;-3.22;-3.9;-4.21;-4.29;-4.3;-4.39;-4.65;-5.09;-5.65;-6.21;-6.64;-6.78;-6.53;-5.83;-4.7;-3.3;-1.82;-0.496;0.458;0.938;0.946;0.618;0.137;-0.32;-0.603;-0.61;-0.298;0.32;1.11;1.9;2.49;2.73;2.55;1.95;1.06;0.0458;-0.9;-1.58;-1.87;-1.76;-1.35;-0.809;-0.351;-0.145;-0.282;-0.74;-1.41;-2.09;-2.55;-2.6;-2.17;-1.32;-0.214;0.908;1.75;2.1;1.79;0.816;-0.679;-2.52;-4.42;-6.15;-7.46;-8.18;-8.2;-7.55;-6.34;-4.82;-3.25;-1.89;-0.923;-0.435;-0.397;-0.687;-1.16;-1.65;-2.01;-2.18;-2.13;-1.87;-1.45;-0.908;-0.32;0.221;0.641;0.854;0.847;0.587;0.0916;-0.587;-1.37;-2.14;-2.78;-3.2;-3.38;-3.36;-3.22;-3.03;-2.82;-2.58;-2.26;-1.84;-1.28;-0.603;0.175;1.08;2.08;3.17;4.24;5.23;6.02;6.55;6.74;6.51;5.82;4.68;3.17;1.41;-0.404;-2.1;-3.5;-4.49;-5.03;-5.17;-5.03;-4.75;-4.41;-4.1;-3.87;-3.71;-3.53;-3.23;-2.7;-1.88;-0.832;0.328;1.44;2.3;2.72;2.64;2.04;1.05;-0.16;-1.35;-2.27;-2.75;-2.72;-2.26;-1.46;-0.542;0.328;0.969;1.27;1.16;0.679;-0.0458;-0.847;-1.5;-1.82;-1.64;-0.938;0.229;1.66;3.07;4.19;4.75;4.62;3.85;2.6;1.18;-0.122;-1.06;-1.47;-1.32;-0.694;0.229;1.24;2.14;2.74;2.93;2.71;2.12;1.29;0.404;-0.343;-0.824;-0.969;-0.809;-0.435;0.0229;0.45;0.748;0.885;0.87;0.717;0.473;0.137;-0.275;-0.771;-1.37;-2.03;-2.75;-3.47;-4.12;-4.61;-4.87;-4.83;-4.47;-3.81;-2.86;-1.6;-0.0229;1.85;3.88;5.84;7.48;8.58;9;8.74;7.88;6.65;5.33;4.2;3.45;3.11;3.11;3.25;3.39;3.4;3.24;2.9;2.39;1.74;1.04;0.389;-0.0687;-0.214;0;0.587;1.49;2.6;3.81;5.01;6.08;6.92;7.47;7.71;7.67;7.46;7.22;7.05;6.97;6.9;6.7;6.21;5.33;4.01;2.36;0.488;-1.4;-3.11;-4.46;-5.33;-5.67;-5.47;-4.79;-3.71;-2.27;-0.572;1.3;3.2;4.94;6.36;7.35;7.93;8.17;8.23;8.32;8.58;9.08;9.84;10.8;11.8;12.6;13.3;13.6;13.4;12.6;11.2;9.41;7.21;4.9;2.72;0.961;-0.153;-0.473;0.0153;1.17;2.75;4.46;6;7.13;7.71;7.74;7.35;6.76;6.22;5.92;5.96;6.3;6.8;7.26;7.45;7.21;6.49;5.36;3.98;2.53;1.23;0.221;-0.397;-0.603;-0.427;0.0381;0.641;1.21;1.53;1.4;0.71;-0.572;-2.29;-4.2;-5.98;-7.32;-7.97;-7.77;-6.76;-5.07;-2.99;-0.832;1.08;2.53;3.37;3.67;3.58;3.34;3.21;3.36;3.82;4.54;5.4;6.24;6.9;7.25;7.22;6.8;6.05;5.07;3.95;2.81;1.72;0.74;-0.114;-0.847;-1.47;-1.98;-2.41;-2.73;-2.95;-3.04;-3;-2.75;-2.31;-1.69;-0.9;-0.0229;0.877;1.76;2.58;3.27;3.76;4.02;4.01;3.72;3.22;2.52;1.62;0.534;-0.725;-2.13;-3.59;-4.96;-6.13;-6.96;-7.41;-7.47;-7.23;-6.81;-6.42;-6.2;-6.29;-6.68;-7.29;-7.89;-8.23;-8.08;-7.29;-5.83;-3.82;-1.47;0.938;3.08;4.7;5.6;5.72;5.13;4.03;2.66;1.33;0.298;-0.298;-0.488;-0.412;-0.29;-0.351;-0.771;-1.61;-2.81;-4.18;-5.53;-6.62;-7.29;-7.45;-7.13;-6.45;-5.63;-4.86;-4.27;-3.96;-3.94;-4.13;-4.41;-4.62;-4.59;-4.24;-3.56;-2.62;-1.61;-0.717;-0.16;-0.107;-0.656;-1.81;-3.43;-5.26;-7.02;-8.36;-9.06;-9.03;-8.36;-7.29;-6.13;-5.2;-4.72;-4.81;-5.37;-6.22;-7.03;-7.5;-7.38;-6.55;-5.04;-3.07;-0.931;1.05;2.58;3.45;3.57;2.98;1.84;0.359;-1.21;-2.66;-3.84;-4.66;-5.09;-5.17;-4.98;-4.63;-4.26;-3.99;-3.91;-4.05;-4.38;-4.76;-5.04;-5.07;-4.72;-4.01;-3.04;-2.01;-1.16;-0.755;-0.999;-1.97;-3.57;-5.58;-7.63;-9.35;-10.4;-10.6;-10.1;-8.87;-7.4;-6;-4.95;-4.44;-4.47;-4.91;-5.52;-6.02;-6.2;-5.91;-5.12;-3.87;-2.3;-0.603
chunkTimeUtcMs;1676999858343;chunkTimeLocalMs;2428828
acc_x;2.04;1.52;0.754;-0.12;-1;-1.72;-2.16;-2.35;-2.38;-2.34;-2.24;-2.09;-1.9;-1.69;-1.55;-1.56;-1.73;-1.98;-2.13;-2.08;-1.95;-1.76;-1.57;-1.48;-1.53;-1.75;-2.09;-2.4;-2.64;-2.81;-2.96;-3.11;-3.22;-3.27;-3.23;-3.05;-2.75;-2.37;-1.98;-1.63;-1.29;-0.936;-0.548;-0.0622;0.527;1.13;1.67;2.1;2.42;2.59;2.63;2.54;2.32;2.02;1.72;1.57;1.65;1.88;2.16;2.36;2.36;2.21;1.85;1.3;0.723;0.249;-0.151;-0.419;-0.424;-0.115;0.426;1.07;1.65;2.01;2.02;1.67;0.984;0.134;-0.733;-1.47;-1.92;-1.97;-1.65;-1.06;-0.453;0.0263;0.381;0.589;0.62;0.464;0.136;-0.338;-0.848;-1.29;-1.57;-1.58;-1.29;-0.871;-0.39;0.108;0.539;0.936;1.31;1.51;1.45;1.13;0.618;0.0431;-0.476;-0.79;-0.754;-0.397;0.206;0.996;1.91;2.82;3.55;3.94;3.85;3.36;2.65;1.88;1.3;1.03;1.02;1.24;1.62;2.08;2.51;2.74;2.64;2.18;1.47;0.622;-0.314;-1.24;-1.95;-2.36;-2.44;-2.25;-1.9;-1.58;-1.41;-1.42;-1.5;-1.61;-1.72;-1.73;-1.63;-1.42;-1.09;-0.632;-0.146;0.249;0.505;0.584;0.481;0.192;-0.206;-0.532;-0.699;-0.697;-0.51;-0.184;0.22;0.649;0.984;1.13;1.07;0.79;0.345;-0.165;-0.646;-1.01;-1.21;-1.23;-1.08;-0.883;-0.666;-0.409;-0.146;0.0359;0.0575;-0.0215;-0.151;-0.338;-0.543;-0.687;-0.776;-0.812;-0.749;-0.582;-0.405;-0.35;-0.491;-0.826;-1.33;-1.92;-2.45;-2.74;-2.7;-2.28;-1.53;-0.582;0.342;1.01;1.32;1.2;0.663;-0.163;-1.07;-1.84;-2.22;-2.13;-1.67;-0.998;-0.251;0.443;1.03;1.46;1.68;1.68;1.61;1.6;1.72;2;2.5;3.25;4.2;5.24;6.24;7.01;7.41;7.45;7.13;6.51;5.76;5.05;4.43;3.97;3.76;3.84;4.13;4.47;4.71;4.67;4.28;3.49;2.38;1.11;-0.16;-1.27;-2.06;-2.39;-2.22;-1.64;-0.891;-0.187;0.35;0.596;0.476;0.0168;-0.687;-1.52;-2.32;-2.89;-3.17;-3.26;-3.25;-3.12;-2.94;-2.82;-2.84;-2.97;-3.22;-3.58;-4;-4.41;-4.8;-5.07;-5.06;-4.73;-4.18;-3.48;-2.65;-1.84;-1.21;-0.828;-0.73;-0.852;-1.02;-1.14;-1.25;-1.26;-1.08;-0.728;-0.261;0.292;0.912;1.55;2.06;2.34;2.32;2.02;1.43;0.687;0.0479;-0.347;-0.376;0.00958;0.646;1.36;1.99;2.39;2.51;2.36;1.94;1.3;0.591;-0.0431;-0.551;-0.862;-0.936;-0.85;-0.639;-0.352;-0.0359;0.271;0.421;0.402;0.321;0.232;0.127;0.0407;0.0575;0.165;0.34;0.591;0.855;1.03;1.05;0.9;0.713;0.615;0.67;0.917;1.33;1.8;2.26;2.71;3.16;3.62;4.12;4.62;5.04;5.36;5.58;5.66;5.61;5.46;5.26;5.06;4.88;4.73;4.58;4.38;4.06;3.56;2.91;2.17;1.39;0.68;0.153;-0.132;-0.139;0.0838;0.431;0.781;1.06;1.22;1.21;1.01;0.721;0.481;0.275;-0.0359;-0.424;-0.74;-1.02;-1.33;-1.58;-1.71;-1.79;-1.9;-2.03;-2.11;-2.18;-2.32;-2.53;-2.82;-3.16;-3.41;-3.43;-3.08;-2.37;-1.42;-0.388;0.555;1.25;1.63;1.64;1.38;1.04;0.792;0.757;0.96;1.39;2.02;2.77;3.56;4.27;4.72;4.8;4.51;3.92;3.17;2.44;1.92;1.68;1.7;1.92;2.26;2.69;3.16;3.61;3.97;4.15;4.07;3.73;3.15;2.5;2.01;1.79;1.91;2.34;2.95;3.6;4.16;4.52;4.59;4.34;3.79;3.04;2.16;1.23;0.472;0.0455;-0.0311;0.287;0.953;1.76;2.48;2.92;2.94;2.49;1.62;0.5;-0.622;-1.51;-1.94;-1.76;-0.958;0.28;1.66;2.85;3.57;3.67;3.11;2.01;0.709;-0.476;-1.39;-1.92;-1.99;-1.6;-0.91;-0.146;0.484;0.74;0.457;-0.309;-1.41;-2.67;-3.86;-4.72;-5.09;-4.95;-4.45;-3.82;-3.23;-2.84;-2.71;-2.83;-3.17;-3.73;-4.51;-5.38;-6.12;-6.52;-6.45;-5.93;-5.07;-4.13;-3.39;-2.98;-3;-3.4;-4.02;-4.73;-5.48;-6.17;-6.67;-6.92;-6.82;-6.35;-5.63;-4.79;-3.98;-3.36;-3.03;-2.99;-3.19;-3.52;-3.87;-4.08;-4.02;-3.63;-2.94;-1.99;-0.848;0.338;1.36;2.07;2.31;2.13;1.73;1.32;1.07;1.01;1.04;1.16;1.37;1.65;1.95;2.24;2.38;2.32;2.15;2.03;2.1;2.4;2.81;3.15;3.3;3.2;2.84;2.34;1.85;1.51;1.44;1.61;1.87;2.12;2.27;2.28;2.17;1.96;1.67;1.35;1.03;0.816;0.73;0.694;0.666;0.668;0.675;0.575;0.378;0.213;0.105;0.0527;0.0359;-0.0575;-0.323;-0.757;-1.27;-1.73;-2.09;-2.39;-2.67;-3;-3.45;-4.04;-4.71;-5.36;-5.84;-6.03;-5.9;-5.54;-5.05;-4.55;-4.16;-3.9;-3.71;-3.51;-3.33;-3.14;-2.9;-2.65;-2.49;-2.42;-2.49;-2.7;-3.01;-3.36;-3.71;-4.04;-4.33;-4.51;-4.54;-4.48;-4.44;-4.43;-4.39;-4.23;-3.83;-3.18;-2.4;-1.58;-0.876;-0.302;0.165;0.575;1.02;1.53;1.98;2.26;2.39;2.49;2.63;2.82;3.04;3.24;3.36;3.31;3;2.49;1.94;1.36;0.871;0.68;0.79;1.16;1.75;2.45;3.1;3.62;4.01;4.28;4.39;4.34;4.18;3.98;3.83;3.79;3.88;4;4.17;4.4;4.61;4.7;4.59;4.17;3.45;2.66;2.01;1.69;1.71;2.01;2.47;2.91;3.19;3.3;3.28;3.12;2.86;2.47;1.93;1.33;0.749;0.283;0.0359;0.0311;0.232;0.615;1.14;1.7;2.13;2.29;2.19;1.84;1.28;0.694;0.251;0.00239;-0.0431;0.115;0.383;0.567;0.551;0.299;-0.194;-0.867;-1.65;-2.52;-3.34;-3.97;-4.4;-4.61;-4.59;-4.38;-4.08;-3.83;-3.63;-3.49;-3.49;-3.62;-3.89;-4.21;-4.49;-4.72;-4.87;-4.8;-4.48;-4.05;-3.56;-3.06;-2.63;-2.35;-2.27;-2.35;-2.55;-2.79;-2.97;-3.03;-2.93;-2.63;-2.28;-1.99;-1.72;-1.36;-0.883;-0.333;0.235;0.745;1.14;1.43;1.63;1.72;1.8;1.93;2.16;2.41;2.61;2.83;3.12;3.36;3.52;3.62;3.59;3.42;3.08;2.62;2.11;1.58;1.13;0.905;0.941;1.25;1.85;2.62;3.31;3.71;3.77;3.46;2.76;1.83;0.876;0.117;-0.323;-0.412;-0.175;0.266;0.73;1.04;1.14;1.06;0.761;0.256;-0.395;-1.14;-1.92;-2.62;-3.08;-3.17;-2.89;-2.29;-1.5;-0.697;-0.103;0.187;0.165;-0.165;-0.666;-1.09;-1.24;-1.02;-0.39;0.546;1.6;2.58;3.22;3.28;2.72;1.72;0.56;-0.45;-1.11;-1.29;-0.893;0.012;1.29;2.75;4.05;4.97;5.38;5.29;4.8;4.03;3.1;2.14;1.28;0.678;0.421;0.436;0.618;0.977;1.47;2.01;2.47;2.66;2.53;2.15;1.57;0.936;0.347;-0.139;-0.419;-0.433;-0.287;-0.127;-0.0168;0.0287;-0.0144;-0.134;-0.323;-0.596;-1.01;-1.59;-2.22;-2.79;-3.22;-3.38;-3.24;-2.92;-2.43;-1.74;-0.972;-0.302;0.177;0.369;0.204;-0.254;-0.857;-1.47;-1.97;-2.2;-2.11;-1.74;-1.09;-0.268;0.512;1.06;1.33;1.37;1.19;0.874;0.52;0.189;-0.0407;-0.0479;0.204;0.634;1.14;1.59;1.9;2.05;2.09;2.05;1.92;1.74;1.53;1.27;0.965;0.704;0.5;0.297;0.067;-0.158;-0.357;-0.543;-0.67;-0.668;-0.541;-0.314;-0.0479;0.122;0.0934;-0.163;-0.596;-1.13;-1.72;-2.29;-2.78;-3.07;-3.14;-2.97;-2.61;-2.23;-2.02;-2.1;-2.53;-3.3;-4.31;-5.31;-6.06;-6.37;-6.14;-5.38;-4.24;-2.98;-1.82;-0.941;-0.429;-0.376;-0.778;-1.51;-2.35;-3.03;-3.44;-3.58;-3.42;-2.97;-2.33;-1.68;-1.15;-0.838;-0.752;-0.819;-0.967;-1.16;-1.41;-1.65;-1.74;-1.61;-1.26;-0.757;-0.273;0.0886;0.318;0.405;0.321;0.151;0.012;-0.0407;0.0407;0.285;0.704;1.32;2.04;2.7;3.15;3.18;2.81;2.16;1.43;0.876;0.709;0.881;1.24;1.64;2;2.23;2.2;1.83;1.23;0.654;0.266;0.158;0.407;0.936;1.53;2.06;2.43;2.53;2.28;1.83;1.28;0.678;0.139;-0.259;-0.579;-0.862;-1.15;-1.46;-1.77;-2.08;-2.3;-2.27;-1.98;-1.55;-1.14;-0.871;-0.886;-1.21;-1.73;-2.3;-2.8;-3.14;-3.3;-3.38;-3.38;-3.27;-3.04;-2.7;-2.36;-2.13;-2.07;-2.16;-2.36;-2.63;-3.03;-3.56;-4.14;-4.64;-4.9;-4.83;-4.47;-3.96;-3.49;-3.16;-2.96;-2.87;-2.88;-2.91;-2.88;-2.84;-2.81;-2.8;-2.83;-2.81;-2.71;-2.54;-2.31;-2;-1.64;-1.32;-1.18;-1.18;-1.36;-1.68;-2.06;-2.46;-2.72;-2.71;-2.49;-2.1;-1.55;-1.01;-0.625;-0.455;-0.536;-0.857;-1.28;-1.65;-1.85;-1.82;-1.55;-1.09;-0.496;0.117;0.577;0.838;0.934;0.848;0.599;0.261;-0.0862;-0.335;-0.326;-0.00479;0.527;1.18;1.9;2.6;3.2;3.53;3.41;2.88;2.09;1.18;0.4;0.0646;0.294;1.08;2.32;3.71;4.93;5.72;5.9;5.43;4.49;3.31;2.08;1.07;0.543;0.481;0.781;1.37;2.07;2.69;3.12;3.3;3.23;2.93;2.39;1.72;1.1;0.634;0.381;0.352;0.498;0.764;1.06;1.26;1.34;1.29;1.1;0.819;0.472;0.189;0.0862;0.215;0.563;1.09;1.72;2.28;2.59;2.65;2.47;2.07;1.62;1.19;0.864;0.711;0.749;0.915;1.15;1.37;1.54;1.69;1.9;2.2;2.51;2.81;3.07;3.2;3.13;2.89;2.55;2.13;1.73;1.5;1.54;1.89;2.46;3.12;3.76;4.19;4.25;3.91;3.2;2.27;1.31;0.393;-0.472;-1.18;-1.63;-1.79;-1.66;-1.31;-0.848;-0.388;-0.0479;0.0814;-0.0886;-0.591;-1.31;-2.06;-2.7;-3.17;-3.44;-3.44;-3.09;-2.52;-1.93;-1.53;-1.47;-1.82;-2.47;-3.29;-4.1;-4.75;-5.08;-5.01;-4.61;-4.01;-3.21;-2.28;-1.39;-0.687;-0.215;0.0335;0.0168;-0.302;-0.766;-1.1;-1.15;-0.922;-0.407;0.328;1.18;1.97;2.48;2.67;2.56;2.13;1.51;0.871;0.412;0.201;0.232;0.532;1.09;1.75;2.34;2.79;3.02;2.97;2.72;2.32;1.86;1.42;1.08;0.907;0.996;1.34;1.83;2.34;2.64;2.58;2.21;1.59;0.869;0.11;-0.634;-1.27;-1.72;-2.03;-2.22;-2.29;-2.26;-2.19;-2.05;-1.87;-1.66;-1.43;-1.19;-1.07;-1.16;-1.45;-1.88;-2.29;-2.62;-2.86;-2.9;-2.69;-2.31;-1.89;-1.56;-1.37;-1.27;-1.33;-1.58;-1.96;-2.38;-2.76;-3.11;-3.39;-3.56;-3.56;-3.39;-3.02;-2.52;-1.97;-1.51;-1.23;-1.13;-1.25;-1.64;-2.21;-2.78;-3.25;-3.55;-3.58;-3.31;-2.73;-1.97;-1.26;-0.831;-0.701;-0.852;-1.18;-1.58;-1.94;-2.07;-1.89;-1.53;-1.06;-0.606;-0.304;-0.17;-0.184;-0.373;-0.663;-1.02;-1.44;-1.85;-2.19;-2.47;-2.61;-2.51;-2.11;-1.35;-0.299;0.864;1.93;2.7;3.09;3.13;2.88;2.45;1.99;1.55;1.21;1.01;0.84;0.637;0.381;0.153;0.103;0.34;0.915;1.81;2.88;3.88;4.58;4.78;4.41;3.66;2.82;2.03;1.45;1.27;1.55;2.22;3.06;3.84;4.43;4.72;4.68;4.34;3.71;2.93;2.12;1.36;0.778;0.548;0.634;0.915;1.32;1.72;1.98;1.99;1.63;0.95;0.0766;-0.862;-1.64;-2.08;-2.05;-1.58;-0.814;0.0646;0.867;1.46;1.7;1.45;0.838;0.0359;-0.836;-1.63;-2.16;-2.37;-2.3;-2.08;-1.8;-1.51;-1.29;-1.14;-1.03;-1.03;-1.12;-1.21;-1.32;-1.46;-1.54;-1.54;-1.47;-1.37;-1.3;-1.21;-1.06;-0.857;-0.63;-0.395;-0.196;-0.0335;0.115;0.223;0.271;0.35;0.541;0.848;1.23;1.67;2.1;2.41;2.53;2.52;2.42;2.29;2.23;2.26;2.32;2.34;2.32;2.22;2.05;1.93;2;2.25;2.59;2.88;3.05;3.1;3.13;3.19;3.33;3.57;3.88;4.24;4.66;5.07;5.37;5.51;5.44;5.16;4.76;4.35;3.95;3.57;3.19;2.75;2.24;1.75;1.39;1.14;0.982;0.903;0.838;0.685;0.412;0.067;-0.275;-0.56;-0.735;-0.79;-0.795;-0.788;-0.771;-0.728;-0.668;-0.603;-0.517;-0.405;-0.33;-0.378;-0.594;-1.02;-1.73;-2.72;-3.88;-5.02;-5.92;-6.41;-6.45;-6.06;-5.42;-4.82;-4.37;-4.13;-4.26;-4.77;-5.5;-6.28;-6.93;-7.3;-7.27;-6.83;-6.01;-4.86;-3.55;-2.29;-1.27;-0.599;-0.347;-0.476;-0.804;-1.23;-1.76;-2.33;-2.81;-3.12;-3.24;-3.1;-2.72;-2.21;-1.69;-1.23;-0.881;-0.711;-0.754;-0.922;-1.12;-1.23;-1.21;-1.05;-0.699;-0.158;0.457;1.05;1.64;2.22;2.66;2.9;2.97;2.94;2.94;3.08;3.32;3.66;4.06;4.38;4.59;4.69;4.57;4.21;3.72;3.21;2.79;2.51;2.39;2.41;2.49
acc_y;12.7;12.9;13.4;13.8;13.9;13.3;12.4;11.7;11.6;12;13;13.9;14.5;14.5;14.1;13.8;13.8;14.1;14.4;14.6;14.4;13.8;13.1;12.6;12.2;11.8;11.3;10.8;10;9.04;7.87;6.8;6.24;6.3;6.69;6.97;7.05;7.19;7.7;8.66;9.89;11.1;12;12.4;12.4;12;11.6;11.1;10.5;9.52;8.07;6.39;4.96;4.21;4.16;4.48;4.64;4.24;3.44;2.71;2.47;2.87;3.66;4.39;4.76;4.88;5.28;6.51;8.54;10.9;13;14.4;14.9;14.6;13.9;13.1;12.3;11.8;11.3;10.7;9.68;8.35;7.05;6.19;6.08;6.68;7.51;8.02;7.86;6.92;5.65;4.81;4.95;5.89;7;7.81;8.36;9.14;10.5;12.5;14.3;15.4;15.6;14.8;13.6;12.5;11.9;11.3;10.5;9.37;8.31;7.8;8.03;8.68;9.08;8.8;8;7.19;6.65;6.44;6.5;6.62;6.62;6.5;6.45;6.76;7.55;8.72;9.91;10.9;11.5;11.8;11.4;10.7;9.76;9.11;8.83;8.81;8.72;8.26;7.45;6.62;6.22;6.36;6.75;7.02;7.03;6.85;6.69;6.78;7.18;7.64;7.95;8.09;8.03;7.72;7.28;6.91;6.65;6.38;6.07;5.79;5.66;5.8;6.23;6.67;6.84;6.67;6.17;5.65;5.55;5.78;5.96;6;6;6.07;6.31;6.86;7.81;8.93;9.95;10.7;10.9;10.7;10.3;9.95;9.73;9.56;9.27;8.75;8.09;7.52;7.17;6.99;6.94;6.93;6.74;6.25;5.76;5.8;6.62;8.1;9.88;11.4;12.4;12.8;12.6;12.2;11.8;11.9;12.3;12.5;12.2;11.4;10.5;9.83;9.42;9.3;9.27;9.02;8.26;6.82;4.9;3.07;1.92;1.69;2.19;3.08;3.96;4.52;4.66;4.53;4.41;4.38;4.46;4.56;4.6;4.58;4.67;4.98;5.57;6.39;7.27;7.99;8.43;8.65;8.59;8.08;7.12;5.92;4.83;4.14;3.94;4.25;4.98;5.85;6.66;7.18;7.26;7.02;6.78;6.67;6.59;6.35;5.9;5.35;4.92;4.91;5.43;6.35;7.31;7.97;8.26;8.26;8.1;7.95;7.9;8.04;8.38;8.87;9.5;10.3;11;11.5;11.7;11.4;11;10.8;10.5;10.1;9.44;8.53;7.45;6.33;5.39;4.85;4.76;5;5.41;5.84;6.05;5.86;5.33;4.82;4.81;5.49;6.63;7.88;8.84;9.37;9.73;10.3;11.1;11.9;12.3;12.1;11.5;10.4;8.96;7.48;6.45;6;5.84;5.77;5.78;6.01;6.53;7.1;7.49;7.86;8.3;8.62;8.72;9;9.84;11.1;12.1;12.3;11.8;11.2;10.8;10.6;10.5;10.5;10.2;9.43;8.34;7.33;6.73;6.71;7.21;7.83;8.23;8.48;8.75;9.05;9.3;9.4;9.39;9.36;9.32;9.29;9.27;9.19;9.03;8.72;8.14;7.22;6.16;5.23;4.64;4.49;4.79;5.32;5.74;5.89;5.78;5.52;5.48;5.93;6.7;7.4;7.65;7.25;6.45;5.86;5.92;6.44;7.01;7.36;7.44;7.34;7.33;7.61;7.97;8.01;7.68;7.22;6.76;6.44;6.48;7.04;8.01;9;9.65;9.82;9.47;8.73;7.93;7.41;7.29;7.34;7.16;6.55;5.64;4.98;5.09;6.09;7.65;9.09;9.69;9.45;9.09;9.18;9.71;10.3;10.5;10.4;10.2;10.1;10.3;10.9;12;13.1;13.6;13.2;12;10.7;9.48;8.6;8.25;8.31;8.52;8.81;9.18;9.63;10.2;10.8;11.4;11.8;11.9;11.3;10.5;9.71;9.35;9.48;9.87;10.3;10.8;11.3;11.8;12.1;12.1;11.7;10.8;9.49;7.83;6.27;5.38;5.41;6.05;6.78;7.22;7.21;6.9;6.63;6.72;7.16;7.58;7.52;6.79;5.78;5.1;5.29;6.38;7.89;9.3;10.3;10.6;10.2;9.58;9.05;8.77;8.62;8.34;7.87;7.42;7.28;7.66;8.49;9.49;10.2;10.3;9.48;8.32;7.38;7.05;7.4;8.32;9.48;10.4;10.8;11;11.5;12.5;13.4;13.6;13.2;12.4;11.2;10.1;9.25;8.87;8.83;8.91;8.96;9.06;9.45;10.1;10.7;10.6;10;9.21;8.38;7.83;7.93;8.84;10.2;11.5;12.1;12.2;11.9;11.5;11.5;11.7;11.8;11.2;9.74;7.86;6.44;6.07;6.48;6.97;7.03;6.53;5.7;5.11;5.46;6.8;8.46;9.72;10.2;9.95;9.51;9.42;9.81;10.5;11.2;11.6;11.7;11.3;11;10.6;10.2;9.6;8.95;8.41;7.95;7.41;6.77;6.16;5.67;5.31;4.91;4.45;4.32;4.88;6.11;7.68;9.23;10.4;11;11.2;11.5;12.4;13.8;15.1;15.6;15;13.6;12.1;10.9;9.98;9.27;8.78;8.38;7.84;7.14;6.54;6.17;5.91;5.76;5.98;6.67;7.54;8.32;8.88;9.28;9.62;9.91;10.1;10.3;10.7;11.3;11.8;12.3;12.7;12.9;12.6;11.8;10.8;10.3;10.4;11.2;12.2;12.7;12.6;12.1;11.6;11.7;12.3;13.2;13.8;13.7;12.9;11.8;10.8;10.2;10.1;10.2;10.1;9.81;9.28;8.42;7.1;5.54;4.37;4.12;4.75;5.88;7.13;8.21;8.99;9.57;10.2;11.1;12.3;13.3;14.2;14.6;14.4;13.5;11.9;9.83;8.05;7.18;7.3;7.8;7.91;7.1;5.38;3.39;2;1.87;3.06;4.74;5.9;6.27;6.27;6.39;7.03;8.34;10.1;11.7;12.7;12.7;12;11.1;10.3;9.67;9.25;9.27;9.59;9.79;9.8;9.85;10;10.1;9.82;9.18;8.61;8.39;8.36;8.41;8.64;9.03;9.32;9.33;9.24;9.41;9.82;10.1;10;9.67;9.19;8.56;7.9;7.45;7.42;7.88;8.59;9.28;9.96;10.7;11.4;11.8;12;12.1;12.1;12;11.8;11.6;11.6;11.7;12.1;12.8;13.2;13.3;13.1;12.6;12.1;11.7;11.7;11.7;11.4;10.5;9.21;8.35;8.32;9;9.94;10.7;11;10.9;10.6;10.4;10.7;11.4;12;12.2;12.1;12.1;12.1;12.2;12.3;12.5;12.7;12.5;11.9;11;10;8.94;7.76;6.67;5.85;5.32;4.97;4.96;5.5;6.51;7.62;8.52;9.09;9.3;9.21;8.98;8.87;9.07;9.63;10.2;10.6;10.7;11;11.5;12.3;13.1;13.7;13.8;13.2;11.8;10;8.47;7.48;7.23;7.81;9.05;10.5;11.6;12.1;12.2;12.1;12.2;12.1;11.9;11.5;11.1;11;11.3;11.7;12.1;12.1;11.7;11;10.3;9.55;8.73;7.85;7.07;6.76;7.26;8.4;9.78;11.2;12.7;14.2;15.1;15.2;14.5;13.1;11.2;9.41;8.14;7.59;7.62;7.95;8.49;9.31;10.4;11.4;12.1;12.4;12.3;11.9;11.3;10.8;10.6;10.4;9.96;9.32;8.97;9.13;9.62;10.2;10.5;10.6;10.3;9.64;8.83;8.07;7.47;7.1;7.04;7.39;8.3;9.73;11.4;12.9;14.1;14.9;15.4;15.4;14.9;14;12.8;11.6;10.4;9.34;8.47;7.83;7.33;6.93;6.68;6.61;6.51;6.16;5.59;5.09;5.01;5.53;6.47;7.44;8.21;8.89;9.69;10.7;12;13.3;14.1;14.1;13.6;12.8;11.8;10.6;9.53;8.6;7.65;6.61;5.48;4.37;3.6;3.42;3.74;4.33;4.99;5.56;6.03;6.51;7.08;7.78;8.5;9.09;9.52;9.92;10.5;11.5;12.9;14.6;16;16.6;16.3;15.4;14.6;13.9;13.4;12.9;12.5;12;11.7;11.8;12.4;13.2;13.8;14;13.6;13;12.3;11.7;11;10.3;9.5;9.05;9.1;9.45;10;10.8;11.7;12.9;13.8;14.1;13.7;12.8;12;11.7;11.7;11.7;11.6;11.4;11.1;10.6;10;9.29;8.45;7.47;6.57;6.09;6.18;6.69;7.18;7.23;6.76;6.06;5.53;5.4;5.72;6.2;6.45;6.4;6.41;6.71;7.23;7.69;7.88;7.8;7.6;7.38;7.29;7.45;7.68;7.69;7.57;7.64;8.08;8.83;9.64;10.2;10.5;10.5;10.4;10.2;9.84;9.42;8.72;7.65;6.48;5.78;5.98;7.06;8.53;9.78;10.5;10.7;10.5;10.2;10.3;10.8;11.5;11.8;11.4;10.6;9.93;9.73;9.85;10.2;10.8;11.6;12.4;13.1;13.6;13.7;13.2;12.2;11;10.3;10.3;10.8;11.4;11.8;12;12;12.1;12.5;13.2;13.9;14.1;13.7;12.8;11.9;11.1;10.6;10.2;9.91;9.74;9.67;9.71;9.88;10.1;10.4;10.6;10.6;10.4;10.2;10.2;10.3;10.5;10.8;11.2;11.6;11.9;12.2;12.4;12.4;12;11.4;10.7;10;9.22;8.38;7.77;7.52;7.58;7.76;7.82;7.61;7.26;7.13;7.37;7.59;7.46;7.05;6.54;6.39;6.98;8.35;10.2;11.9;12.6;12.1;10.9;9.58;8.63;8.19;8.19;8.5;8.88;9.12;9.36;9.89;10.5;10.6;9.81;8.54;7.45;6.78;6.45;6.24;5.97;5.6;5.28;5.46;6.61;8.65;10.9;12.6;13.1;12.8;12.2;11.8;11.6;11.6;11.9;12.1;12.3;12.4;12.4;12.6;12.9;12.9;12.4;11.6;10.8;10.2;10;10.4;11.3;12.1;12.5;12.5;12.4;12.3;12.3;12.4;12.5;12.5;12.3;11.7;10.6;9.72;9.19;9.05;9.06;8.99;8.67;8.09;7.26;6.31;5.4;4.73;4.31;3.82;3.09;2.4;2.15;2.59;3.74;5.34;6.87;7.81;8.09;8.14;8.55;9.37;10.1;10.2;9.41;7.73;5.82;4.41;4.03;4.86;6.49;8.06;8.84;8.73;8.27;8.01;7.95;7.81;7.46;6.89;6.18;5.59;5.47;6.02;7.01;7.94;8.44;8.54;8.48;8.42;8.33;8.2;8.1;8.02;7.97;8.03;8.28;8.78;9.56;10.5;11.4;12.3;13.1;13.3;12.9;12;11.3;10.9;10.9;11.1;11.5;11.5;11.1;10.4;9.88;9.75;9.8;9.51;8.78;8;7.42;7;6.79;6.92;7.33;7.9;8.64;9.53;10.4;11;11;10.4;9.5;8.97;9.01;9.43;9.9;10.3;10.4;10.4;10.3;10.2;10.2;9.98;9.58;9.03;8.41;7.86;7.51;7.38;7.5;7.87;8.45;9.25;10.2;11.3;11.9;11.9;11.4;10.6;9.81;8.99;8.17;7.47;6.94;6.53;6.1;5.57;5.08;4.81;4.71;4.7;4.86;5.22;5.54;5.57;5.38;5.25;5.3;5.6;6.28;7.36;8.6;9.77;10.8;11.8;12.5;12.7;12.4;11.6;10.4;9;7.64;6.62;6.05;5.78;5.55;5.28;5.1;5.02;4.97;4.98;5.13;5.47;5.86;5.95;5.56;4.99;4.68;4.9;5.6;6.49;7.21;7.65;7.81;7.74;7.52;7.22;6.89;6.62;6.56;6.82;7.52;8.62;9.95;11.3;12.4;13;13.1;12.4;11.4;10.7;10.5;10.6;10.5;9.71;8.2;6.4;4.87;4.11;4.46;5.89;7.87;9.58;10.5;10.7;10.8;11.1;11.2;11;10.6;10.3;10.3;10.2;10.1;10.4;11.1;12;12.7;13.1;13.3;13.3;12.9;12.1;11;9.56;7.99;6.7;6.08;6.24;7.04;8.17;9.22;9.7;9.39;8.54;7.56;6.81;6.37;6.07;5.72;5.35;5.18;5.37;5.86;6.48;6.98;7.06;6.53;5.58;4.77;4.47;4.61;4.87;5.01;5.01;4.98;5.23;6.03;7.3;8.54;9.2;9.23;8.92;8.6;8.5;8.75;9.3;9.92;10.4;10.4;9.84;8.91;8.1;7.68;7.62;7.84;8.09;8;7.4;6.55;6.13;6.59;7.82;9.35;10.7;11.6;11.9;11.7;11.4;11.5;12.4;13.6;14.4;14.3;13.3;11.8;10.4;9.65;9.66;9.91;9.85;9.15;7.92;6.55;5.35;4.54;4.1;3.87;3.84;4.14;4.82;5.65;6.29;6.58;6.63;6.84;7.68;9.24;11.1;12.5;12.8;11.9;10.3;8.96;8.75;9.71;11.2;12.3;12.6;11.9;10.7;9.67;9.26;9.52;10;10.2;9.85;9.05;8.26;7.75;7.46;7.32;7.41;7.7;7.98;8.16;8.28;8.25;7.87;7.13;6.35;5.82;5.62;5.83;6.38;7.1;7.88;8.52;8.88;9.04;9.2;9.52;9.87;9.92;9.52;8.65;7.53;6.66;6.51;7.11;7.96;8.58;8.85;8.88;8.95;9.14;9.26;9.16;8.76;8.01;7.04;6.11;5.5;5.49;6.18;7.43;8.94;10.4;11.5;12;11.9;11.8;11.8;12.1;12.2;11.9;11.2;10.6;10.4;10.5;10.9;11.3;11.5;11.3;11;10.6;10.3;10.3;10.4;10.2;9.93;9.9;10.2;10.7;11.3;11.9;12.2;12.4;12.5;12.6;12.9;13.1;13.2;13;12.2
acc_z;-5.66;-5.08;-4.37;-3.64;-2.87;-2.03;-1.31;-0.836;-0.601;-0.603;-0.86;-1.32;-1.93;-2.64;-3.43;-4.29;-5.2;-6.08;-6.91;-7.64;-8.19;-8.5;-8.59;-8.47;-8.11;-7.49;-6.68;-5.8;-4.88;-4.01;-3.26;-2.66;-2.21;-1.95;-1.9;-2.01;-2.27;-2.72;-3.38;-4.14;-5.02;-5.95;-6.89;-7.77;-8.53;-9.14;-9.57;-9.74;-9.57;-9;-8.01;-6.66;-5.03;-3.31;-1.73;-0.395;0.678;1.42;1.85;1.98;1.73;1.17;0.4;-0.467;-1.32;-2.13;-2.93;-3.73;-4.59;-5.5;-6.37;-7.13;-7.73;-8.09;-8.21;-8.05;-7.58;-6.84;-5.93;-4.96;-3.99;-3.04;-2.18;-1.46;-0.903;-0.488;-0.223;-0.108;-0.127;-0.239;-0.412;-0.668;-1.07;-1.61;-2.16;-2.58;-2.94;-3.3;-3.62;-3.89;-4.17;-4.4;-4.51;-4.46;-4.24;-3.9;-3.45;-2.86;-2.13;-1.26;-0.338;0.484;1.03;1.25;1.24;1.13;0.934;0.632;0.184;-0.402;-1.08;-1.83;-2.62;-3.44;-4.28;-5.13;-5.93;-6.65;-7.22;-7.58;-7.79;-7.85;-7.69;-7.34;-6.91;-6.55;-6.33;-6.25;-6.26;-6.28;-6.32;-6.38;-6.43;-6.52;-6.72;-6.92;-7.07;-7.29;-7.65;-8.15;-8.72;-9.28;-9.74;-10.1;-10.1;-9.97;-9.51;-8.85;-8.01;-7.05;-6.04;-5.01;-4.02;-3.15;-2.44;-1.9;-1.47;-1.08;-0.733;-0.457;-0.285;-0.175;-0.0862;-0.0263;0;0;-0.00958;-0.00718;0.0192;-0.00479;-0.0694;-0.0982;-0.079;-0.0144;0.105;0.232;0.359;0.508;0.663;0.84;1.07;1.31;1.55;1.74;1.9;2.08;2.22;2.3;2.27;2.06;1.54;0.697;-0.402;-1.76;-3.24;-4.66;-5.91;-6.88;-7.45;-7.72;-7.84;-7.79;-7.46;-6.95;-6.42;-5.83;-5.14;-4.39;-3.69;-3.03;-2.37;-1.73;-1.24;-0.922;-0.776;-0.883;-1.28;-1.89;-2.66;-3.51;-4.35;-5.1;-5.72;-6.12;-6.3;-6.27;-6.06;-5.7;-5.27;-4.87;-4.51;-4.24;-4.18;-4.21;-4.21;-4.13;-4;-3.78;-3.41;-2.86;-2.19;-1.57;-1;-0.553;-0.362;-0.438;-0.69;-1.06;-1.47;-1.86;-2.27;-2.67;-3.01;-3.21;-3.28;-3.27;-3.2;-3.1;-2.93;-2.67;-2.33;-1.92;-1.45;-0.917;-0.385;0.0599;0.436;0.733;0.862;0.828;0.642;0.273;-0.263;-0.883;-1.51;-2.08;-2.51;-2.72;-2.66;-2.36;-1.85;-1.19;-0.371;0.536;1.42;2.22;2.92;3.43;3.7;3.7;3.46;3.04;2.49;1.94;1.37;0.673;-0.132;-0.979;-1.88;-2.77;-3.56;-4.28;-4.96;-5.47;-5.67;-5.57;-5.2;-4.63;-3.85;-2.94;-2.05;-1.29;-0.651;-0.103;0.297;0.421;0.213;-0.256;-0.898;-1.67;-2.53;-3.4;-4.27;-5.1;-5.81;-6.39;-6.84;-6.99;-6.75;-6.17;-5.32;-4.29;-3.15;-1.97;-0.85;0.115;0.879;1.41;1.71;1.75;1.45;0.912;0.283;-0.414;-1.23;-2.09;-2.94;-3.67;-4.17;-4.46;-4.55;-4.4;-4.08;-3.59;-2.92;-2.15;-1.3;-0.33;0.73;1.78;2.66;3.3;3.63;3.6;3.15;2.34;1.28;0.0455;-1.27;-2.59;-3.83;-4.88;-5.67;-6.15;-6.35;-6.32;-6.14;-5.85;-5.44;-4.96;-4.47;-4.04;-3.76;-3.64;-3.69;-3.88;-4.11;-4.28;-4.38;-4.33;-4.15;-3.96;-3.82;-3.77;-3.78;-3.81;-3.86;-3.84;-3.68;-3.46;-3.16;-2.72;-2.16;-1.54;-0.907;-0.342;0.0862;0.237;0.127;-0.0503;-0.136;-0.132;-0.103;-0.0263;0.11;0.278;0.52;0.807;1.06;1.27;1.47;1.57;1.53;1.38;1.22;1.13;1.08;1.04;1.03;1.12;1.24;1.32;1.31;1.21;0.984;0.584;0.0359;-0.606;-1.3;-2.01;-2.6;-3.01;-3.26;-3.35;-3.38;-3.37;-3.3;-3.23;-3.15;-3.11;-3.18;-3.34;-3.46;-3.45;-3.3;-2.98;-2.48;-1.86;-1.25;-0.871;-0.836;-1.04;-1.38;-1.81;-2.25;-2.57;-2.73;-2.72;-2.56;-2.26;-1.84;-1.39;-1.02;-0.855;-0.917;-1.13;-1.41;-1.65;-1.8;-1.86;-1.79;-1.59;-1.29;-0.91;-0.498;-0.12;0.199;0.448;0.599;0.666;0.74;0.848;0.915;0.95;0.967;0.924;0.812;0.599;0.225;-0.294;-0.9;-1.5;-2.05;-2.53;-2.93;-3.17;-3.14;-2.84;-2.36;-1.79;-1.18;-0.579;-0.0383;0.45;0.879;1.24;1.52;1.64;1.57;1.36;1.12;0.86;0.546;0.184;-0.242;-0.797;-1.5;-2.3;-3.1;-3.81;-4.38;-4.76;-4.91;-4.81;-4.54;-4.11;-3.47;-2.68;-1.84;-1.09;-0.527;-0.0934;0.306;0.661;0.917;1.09;1.2;1.12;0.764;0.158;-0.646;-1.58;-2.51;-3.34;-4.06;-4.6;-4.9;-4.95;-4.79;-4.44;-4;-3.5;-2.94;-2.26;-1.43;-0.5;0.429;1.24;1.96;2.54;2.84;2.87;2.71;2.48;2.19;1.75;1.16;0.508;-0.208;-0.977;-1.77;-2.57;-3.28;-3.9;-4.49;-5.05;-5.51;-5.77;-5.76;-5.45;-4.86;-4.06;-3.05;-1.87;-0.551;0.781;1.98;2.95;3.59;3.74;3.49;2.95;2.18;1.12;-0.206;-1.7;-3.2;-4.65;-5.96;-7.04;-7.81;-8.17;-8.07;-7.52;-6.57;-5.43;-4.24;-2.99;-1.69;-0.419;0.67;1.49;2;2.22;2.12;1.67;0.939;0.0287;-1.08;-2.34;-3.59;-4.7;-5.64;-6.32;-6.65;-6.63;-6.31;-5.7;-4.77;-3.6;-2.34;-1.09;0.0838;1.17;2.17;3.05;3.79;4.25;4.34;4.07;3.42;2.39;1.05;-0.508;-2.11;-3.68;-5.12;-6.29;-7.21;-7.91;-8.24;-8.16;-7.7;-6.9;-5.84;-4.71;-3.61;-2.54;-1.5;-0.532;0.357;1.15;1.76;2.05;1.95;1.47;0.699;-0.28;-1.49;-2.88;-4.27;-5.47;-6.47;-7.21;-7.61;-7.64;-7.34;-6.77;-5.99;-5.11;-4.2;-3.34;-2.6;-2.03;-1.7;-1.69;-1.98;-2.45;-3.02;-3.65;-4.26;-4.79;-5.19;-5.49;-5.73;-5.94;-6.05;-5.97;-5.63;-5.14;-4.55;-3.86;-3.08;-2.29;-1.62;-1.09;-0.687;-0.45;-0.397;-0.548;-0.852;-1.22;-1.62;-2.06;-2.49;-2.93;-3.26;-3.42;-3.52;-3.56;-3.47;-3.26;-2.96;-2.65;-2.4;-2.19;-2;-1.75;-1.47;-1.2;-0.886;-0.553;-0.299;-0.168;-0.0239;0.237;0.56;0.864;1.11;1.32;1.56;1.71;1.64;1.36;0.955;0.395;-0.345;-1.2;-2.1;-2.91;-3.6;-4.21;-4.72;-5.08;-5.24;-5.28;-5.19;-4.94;-4.6;-4.21;-3.8;-3.34;-2.8;-2.22;-1.67;-1.2;-0.84;-0.675;-0.824;-1.31;-2.08;-3.07;-4.21;-5.4;-6.53;-7.55;-8.45;-9.17;-9.69;-10.1;-10.3;-10.2;-9.81;-9.25;-8.57;-7.8;-6.95;-6.08;-5.23;-4.48;-3.9;-3.46;-3.17;-3.08;-3.16;-3.34;-3.66;-4.04;-4.41;-4.69;-4.84;-4.85;-4.72;-4.47;-4.14;-3.79;-3.48;-3.26;-3.1;-2.93;-2.62;-2.13;-1.46;-0.649;0.239;1.14;1.94;2.55;2.85;2.7;2.16;1.32;0.302;-0.778;-1.82;-2.79;-3.53;-4.01;-4.29;-4.28;-3.98;-3.48;-2.82;-2.01;-1.2;-0.5;0.0646;0.431;0.479;0.175;-0.381;-1.12;-2.04;-3.06;-4.11;-5.15;-6.08;-6.79;-7.19;-7.29;-7.18;-6.85;-6.23;-5.38;-4.47;-3.59;-2.81;-2.21;-1.83;-1.65;-1.66;-1.93;-2.47;-3.29;-4.37;-5.6;-6.85;-8.1;-9.21;-10;-10.6;-10.8;-10.6;-10;-9.11;-7.85;-6.38;-4.88;-3.44;-2.11;-0.994;-0.168;0.318;0.464;0.376;0.067;-0.553;-1.47;-2.56;-3.73;-4.94;-6.05;-6.94;-7.64;-8.17;-8.46;-8.47;-8.2;-7.62;-6.86;-6.04;-5.14;-4.14;-3.12;-2.13;-1.18;-0.251;0.637;1.38;1.93;2.29;2.41;2.22;1.78;1.15;0.4;-0.369;-1.12;-1.83;-2.4;-2.74;-2.85;-2.8;-2.66;-2.52;-2.5;-2.59;-2.77;-2.99;-3.09;-3.03;-2.92;-2.7;-2.3;-1.78;-1.24;-0.797;-0.536;-0.534;-0.785;-1.23;-1.82;-2.47;-3.04;-3.46;-3.78;-4.04;-4.25;-4.41;-4.51;-4.58;-4.66;-4.72;-4.72;-4.67;-4.6;-4.63;-4.75;-4.89;-5.04;-5.24;-5.58;-6.03;-6.46;-6.77;-6.94;-6.98;-6.92;-6.71;-6.35;-5.86;-5.26;-4.59;-3.93;-3.38;-3.05;-2.99;-3.22;-3.66;-4.2;-4.74;-5.19;-5.55;-5.77;-5.68;-5.26;-4.66;-4.03;-3.48;-3.1;-2.84;-2.59;-2.37;-2.2;-2.08;-2.03;-2.09;-2.29;-2.56;-2.86;-3.23;-3.64;-3.98;-4.17;-4.15;-3.94;-3.62;-3.28;-2.97;-2.67;-2.4;-2.12;-1.74;-1.23;-0.649;-0.0838;0.457;0.936;1.28;1.44;1.34;1.02;0.572;0.0431;-0.589;-1.26;-1.89;-2.39;-2.82;-3.16;-3.35;-3.41;-3.27;-2.9;-2.41;-1.91;-1.41;-1.01;-0.766;-0.639;-0.599;-0.709;-0.967;-1.33;-1.76;-2.26;-2.77;-3.23;-3.59;-3.86;-4.05;-4.12;-4.09;-4.01;-3.84;-3.67;-3.58;-3.56;-3.56;-3.52;-3.43;-3.35;-3.33;-3.34;-3.37;-3.51;-3.77;-4.06;-4.32;-4.54;-4.75;-4.92;-5.03;-5.12;-5.22;-5.32;-5.4;-5.45;-5.43;-5.3;-5.06;-4.66;-4.17;-3.68;-3.22;-2.8;-2.46;-2.23;-2.12;-2.08;-2.04;-1.96;-1.79;-1.58;-1.37;-1.18;-1.07;-1.01;-1.01;-1.07;-1.22;-1.47;-1.85;-2.39;-2.99;-3.44;-3.68;-3.73;-3.57;-3.25;-2.82;-2.35;-1.92;-1.6;-1.45;-1.5;-1.77;-2.18;-2.49;-2.47;-2.14;-1.68;-1.22;-0.802;-0.457;-0.213;-0.0239;0.101;0.0527;-0.17;-0.498;-0.929;-1.41;-1.84;-2.22;-2.62;-3.05;-3.45;-3.75;-3.96;-4.09;-4.15;-4.07;-3.85;-3.53;-3.16;-2.7;-2.2;-1.7;-1.27;-0.965;-0.855;-0.979;-1.35;-1.94;-2.68;-3.45;-4.19;-4.87;-5.44;-5.85;-6.12;-6.25;-6.27;-6.1;-5.7;-5.12;-4.46;-3.68;-2.77;-1.86;-1.03;-0.369;0.0934;0.354;0.378;0.168;-0.201;-0.661;-1.13;-1.51;-1.85;-2.26;-2.76;-3.34;-3.94;-4.47;-4.9;-5.27;-5.55;-5.74;-5.84;-5.79;-5.54;-5.14;-4.58;-3.96;-3.38;-2.89;-2.47;-2.09;-1.8;-1.63;-1.62;-1.8;-2.19;-2.64;-3.06;-3.44;-3.77;-4.02;-4.22;-4.39;-4.48;-4.44;-4.22;-3.84;-3.3;-2.61;-1.81;-0.97;-0.175;0.457;0.828;0.96;0.912;0.68;0.302;-0.144;-0.639;-1.21;-1.73;-2.06;-2.23;-2.25;-2.11;-1.93;-1.75;-1.56;-1.38;-1.17;-0.838;-0.39;0.0886;0.546;1.06;1.66;2.28;2.81;3.13;3.2;3.07;2.76;2.26;1.65;1.02;0.381;-0.326;-1.05;-1.62;-2.03;-2.39;-2.77;-3.13;-3.44;-3.73;-4.02;-4.26;-4.4;-4.44;-4.39;-4.23;-3.99;-3.72;-3.43;-3.18;-3.02;-3;-3.05;-3.13;-3.23;-3.38;-3.65;-4.03;-4.48;-4.97;-5.42;-5.82;-6.12;-6.2;-5.98;-5.48;-4.78;-3.89;-2.89;-1.88;-0.919;-0.0814;0.596;1.09;1.39;1.5;1.39;1.13;0.747;0.242;-0.311;-0.857;-1.36;-1.83;-2.22;-2.52;-2.81;-3.11;-3.39;-3.67;-3.89;-4.03;-4.07;-3.96;-3.64;-3.14;-2.58;-2.04;-1.55;-1.17;-0.881;-0.704;-0.675;-0.785;-0.979;-1.22;-1.57;-2.07;-2.66;-3.27;-3.89;-4.51;-5.02;-5.26;-5.23;-4.95;-4.41;-3.67;-2.89;-2.15;-1.42;-0.802;-0.35;-0.0575;0.079;-0.00718;-0.352;-0.91;-1.64;-2.51;-3.35;-3.99;-4.37;-4.46;-4.31;-3.98;-3.51;-2.86;-1.96;-0.85;0.385;1.72;3.13;4.45;5.47;6.1;6.23;5.81;4.9;3.51;1.76;0.00239;-1.58;-2.99;-4.11;-4.83;-5.18;-5.28;-5.18;-4.93;-4.52;-3.97;-3.39;-2.83;-2.4;-2.19;-2.21;-2.44;-2.84;-3.36;-3.91;-4.49;-5.06;-5.56;-5.94;-6.18;-6.24;-6.08;-5.75;-5.37;-5.01;-4.74;-4.5;-4.34;-4.36;-4.55;-4.9;-5.34;-5.73;-5.97;-6.04;-5.85;-5.44;-4.92;-4.41;-3.98;-3.69;-3.49;-3.36;-3.28;-3.27;-3.3;-3.31;-3.35;-3.37;-3.32;-3.18;-2.98;-2.79;-2.65;-2.55;-2.42;-2.29;-2.15;-1.96;-1.67;-1.3;-0.915;-0.532;-0.101;0.376;0.85;1.36;1.84;2.15;2.25;2.14;1.7;0.972;0.0575;-0.984;-2.06;-3.09;-4.05;-4.9;-5.61;-6.12;-6.35;-6.18;-5.67;-4.92;-3.99;-2.96;-1.92;-0.891;0.0359;0.792;1.34;1.67;1.81;1.75;1.48;1.02;0.366;-0.498;-1.48;-2.52;-3.51;-4.36;-5.05;-5.59;-6;-6.32;-6.55;-6.58;-6.39;-6.02;-5.49;-4.88;-4.28;-3.72;-3.21;-2.75;-2.35;-2.06;-1.85;-1.71;-1.7;-1.81;-2.02;-2.29;-2.6;-2.97;-3.36;-3.74;-4.03;-4.15;-4.18;-4.18;-4.07;-3.91;-3.77;-3.58;-3.28;-2.88;-2.43;-2.04;-1.67;-1.41;-1.38;-1.63;-2.04;-2.52;-3.05;-3.6;-4.04;-4.27;-4.28;-4.05;-3.6;-3.01;-2.43;-2;-1.75;-1.66;-1.72;-1.87;-2.07;-2.28;-2.51;-2.68;-2.75;-2.72;-2.61;-2.31;-1.79;-1.17;-0.498;0.192;0.836;1.34;1.7;2;2.28;2.43;2.43;2.3;2.07;1.87;1.69;1.53;1.43;1.34;1.19;1.1;1.13;1.19;1.29;1.41;1.53;1.58;1.53;1.36;1.02;0.543;-0.0694;-0.833;-1.65;-2.49;-3.34;-4.08;-4.62;-5.01;-5.36;-5.66;-5.87;-6.04;-6.17;-6.17
gyr_x;37.6;30.5;23.2;16.2;10;5.22;2.15;0.908;1.26;2.75;4.92;7.46;10.3;13.5;16.9;20.5;23.5;25.4;25.7;24;20.5;15.4;9.15;2.04;-5.67;-13.7;-21.7;-29.2;-35.7;-40.5;-43.6;-44.8;-44.4;-42.7;-40.1;-36.8;-33.1;-28.8;-24.3;-19.5;-14.8;-10.5;-6.55;-3.02;0.0534;2.56;4.17;4.49;3.22;0.191;-4.47;-10.4;-17.1;-23.9;-30.2;-35.2;-38;-37.9;-34.3;-27.2;-17.4;-5.99;5.87;17;26.7;34.6;40.2;43.6;44.6;43.4;40.6;36.9;33.1;29.9;27.3;25;22.5;19.3;15.1;10.1;4.91;0.00763;-3.97;-6.74;-8.21;-8.48;-7.61;-5.52;-2.07;2.8;8.83;15.3;21.3;25.8;28;27.9;25.6;21.8;16.9;11.6;6.23;1.3;-2.69;-5.48;-7.16;-8.22;-9.35;-11.2;-14.1;-18;-22.6;-27.2;-31.5;-34.9;-36.8;-36.9;-34.8;-30.7;-24.9;-18.5;-12.2;-6.7;-2.53;0.175;1.41;1.14;-0.633;-3.89;-8.42;-13.8;-19.4;-24.7;-29.1;-32.2;-34;-34.6;-34.4;-33.6;-32.5;-30.9;-28.8;-26.3;-23.4;-20.6;-17.8;-15.3;-12.8;-10.1;-6.92;-3.41;0.252;3.7;6.61;8.74;9.96;10.2;9.5;7.82;5.28;2.08;-1.45;-4.9;-7.86;-9.99;-11;-10.7;-9.06;-5.99;-1.67;3.56;9.15;14.5;19.2;22.8;25.4;27;27.7;27.5;26.5;24.9;22.9;20.9;19.2;18.2;17.9;18;18.1;17.9;17;15.5;13.3;10.7;7.66;4.43;1.15;-1.93;-4.51;-6.33;-7.28;-7.43;-7.03;-6.36;-5.57;-4.69;-3.64;-2.4;-1.22;-0.61;-1.3;-3.94;-8.95;-16.2;-25.2;-34.9;-44.6;-53.5;-61.2;-67.6;-72.3;-75.2;-76;-74.5;-70.6;-64.7;-57.3;-49.5;-42;-35.4;-29.6;-24.5;-19.7;-15;-10.5;-6.82;-4.24;-3.17;-3.67;-5.54;-8.34;-11.6;-14.7;-17.2;-18.8;-19.1;-18.1;-15.8;-12.4;-8.32;-3.94;0.282;3.94;6.66;8.31;8.96;9;9.03;9.68;11.5;14.9;19.8;25.7;31.9;37.6;42.1;45;46;45;42.2;37.5;31.5;24.6;17.4;10.6;4.94;0.793;-1.8;-3.1;-3.5;-3.45;-3.26;-3.11;-3.03;-3.02;-3.08;-3.27;-3.72;-4.71;-6.52;-9.44;-13.6;-18.8;-24.7;-30.8;-36.7;-41.9;-46.2;-49.3;-51;-51.1;-49.4;-45.7;-40.1;-32.9;-24.7;-16.3;-8.67;-2.56;1.75;4.35;5.62;5.98;5.69;4.78;3.17;0.862;-2.02;-5.17;-8.23;-11;-13.3;-15.3;-16.9;-18.2;-18.8;-18.6;-17.1;-14;-9.35;-3.33;3.63;10.9;17.9;23.9;28.1;30.1;29.5;26.5;21.4;14.7;7.08;-0.999;-9.19;-17.2;-24.7;-31.1;-35.9;-38.5;-38.7;-36.9;-33.4;-28.9;-24;-18.9;-13.7;-8.76;-4.09;-0.0534;2.99;4.7;4.8;3.2;-0.061;-4.71;-10.4;-16.5;-22.5;-28;-32.5;-35.7;-37.5;-37.8;-36.8;-34.5;-30.9;-26;-19.8;-12.4;-4.33;3.75;10.9;16.3;19.3;19.8;18.2;14.8;10.2;4.69;-1.46;-7.85;-14;-19.1;-22.7;-24.3;-23.8;-21.4;-17.7;-13.3;-8.69;-4.55;-1.41;0.305;0.435;-0.893;-3.2;-5.78;-7.87;-8.84;-8.46;-6.94;-4.82;-2.76;-1.27;-0.473;-0.214;-0.122;0.114;0.633;1.41;2.37;3.57;5.23;7.56;10.6;14;17.2;19.7;21;21.2;20.5;19;17.1;14.8;12.4;10;8.08;6.93;6.78;7.51;8.65;9.48;9.34;7.83;5;1.27;-2.75;-6.37;-9.12;-10.7;-11.3;-11;-10.2;-9.2;-8.42;-8.3;-9.28;-11.7;-15.5;-20.6;-26.2;-31.8;-36.7;-40.3;-42.4;-42.7;-41.7;-39.5;-36.8;-33.9;-31.4;-29.6;-28.5;-27.7;-26.9;-25.3;-22.6;-19;-14.8;-10.5;-6.72;-3.52;-0.74;1.87;4.46;6.97;9.15;10.8;12;13;14.2;15.9;18.1;20.3;22.2;23.2;23.1;21.8;19.7;17.2;14.4;11.7;9.32;7.7;7.22;8.22;10.7;14.3;18.3;21.8;24.3;25.4;25.2;24.1;22.5;20.5;18.1;15.2;11.7;7.84;3.85;-0.0839;-3.95;-7.89;-12;-16.5;-21.1;-25.4;-29.1;-31.6;-32.6;-32;-29.7;-25.8;-20.7;-14.8;-9.02;-4.05;-0.526;1.26;1.45;0.504;-0.999;-2.59;-4.14;-5.74;-7.59;-9.76;-12;-14.1;-15.4;-16.1;-16.1;-15.9;-15.6;-14.9;-13.6;-11.3;-7.9;-3.64;1.02;5.71;10.3;14.9;19.5;24.2;28.2;30.9;31.6;29.9;26.1;20.8;14.9;8.92;3.47;-1.26;-5.2;-8.34;-10.7;-12.1;-12.6;-11.8;-9.82;-6.7;-2.68;1.87;6.49;10.7;14.1;16.4;17.5;17.6;17.1;16.6;16.3;16.1;15.7;14.6;12.7;9.83;6.41;2.73;-1.06;-5.12;-9.7;-15;-20.7;-26.4;-31.1;-33.8;-33.8;-30.7;-24.6;-16;-5.71;5.45;16.6;27;36.1;43.5;48.8;51.7;51.8;49;43.2;34.9;24.6;13.4;2.17;-7.85;-15.7;-20.7;-22.8;-21.9;-18.9;-14.2;-8.37;-1.74;5.6;13.5;21.5;29;34.9;38.4;39.2;37.2;32.8;26.6;18.8;9.79;-0.16;-10.7;-21;-30.2;-37.4;-41.7;-42.9;-41;-36.6;-30.6;-23.8;-16.9;-9.97;-3.09;3.96;11.2;18.3;24.6;29.4;32.1;32.4;30.4;26.4;21.1;14.9;8.08;0.786;-6.99;-15.1;-23.1;-30.1;-35.1;-37.1;-35.7;-31.2;-24.3;-16.2;-7.84;0.374;8.43;16.4;24;30.7;35.6;37.9;37.2;33.9;28.6;22.2;15.4;8.61;2.03;-4.33;-10.3;-15.7;-19.8;-22.2;-22.3;-20.1;-15.6;-9.45;-2.26;5.08;11.7;16.8;20;21;20;17.6;14.1;10.1;6.07;2.33;-0.763;-2.88;-3.72;-3.04;-0.793;2.84;7.47;12.6;17.6;22.1;25.9;28.9;31.3;33.2;34.8;36;36.9;37.3;37.1;36.2;34.6;32.3;29.3;25.8;22.1;18.6;15.6;13.4;12.1;11.7;11.9;12.1;12.2;12;11.4;10.4;8.95;6.9;4.11;0.671;-3;-6.25;-8.45;-9.18;-8.48;-6.81;-4.83;-3.2;-2.37;-2.53;-3.76;-6.05;-9.38;-13.7;-18.8;-24.3;-29.8;-34.7;-38.8;-41.7;-43.4;-44;-43.7;-42.8;-41.3;-39.3;-36.5;-32.8;-28;-21.9;-14.4;-5.68;3.97;13.9;23.3;31.2;36.7;39.3;38.9;35.8;30.6;24.1;17;9.98;3.7;-1.14;-3.93;-4.2;-1.82;2.91;9.28;16.2;22.5;27.3;30.2;31.1;30.7;29.7;29;28.7;28.9;29.1;29;28.1;26.4;23.9;20.7;17;13.1;9.33;6.07;3.48;1.6;0.381;-0.298;-0.519;-0.359;0.0839;0.687;1.34;1.98;2.64;3.42;4.37;5.54;6.87;8.22;9.32;9.68;8.74;5.93;0.893;-6.27;-14.9;-24;-32.2;-38.2;-41;-40;-35.1;-26.8;-15.8;-3.63;8.39;18.8;26.6;30.9;31.6;28.7;22.7;14.3;4.46;-5.61;-14.7;-21.7;-25.9;-26.8;-24.7;-20.2;-14;-7.05;-0.198;5.93;10.9;14.7;17.3;18.8;19.5;19.3;18.2;16.1;12.6;7.74;1.45;-6.1;-14.5;-23.3;-31.5;-38.5;-43.4;-45.6;-44.7;-40.7;-33.8;-24.6;-13.9;-2.59;8.22;17.6;24.8;29.6;31.8;31.6;29.3;25.2;19.7;13.5;7.24;1.7;-2.66;-5.62;-7.28;-7.89;-7.76;-7.13;-6.07;-4.56;-2.5;0.168;3.4;7.1;11.2;15.6;20.3;25.2;30.2;34.9;38.7;41.1;42;41;38.4;34.3;29.2;23.5;17.8;12.6;8.59;6.07;5.07;5.2;5.75;5.95;5.22;3.36;0.58;-2.69;-5.94;-8.74;-10.8;-11.9;-12;-11.1;-9.38;-7.3;-5.32;-3.94;-3.59;-4.49;-6.66;-10;-14.4;-19.3;-24.5;-29.3;-33.2;-35.7;-36.3;-34.9;-31.7;-27.2;-22.4;-18;-14.9;-13.5;-13.5;-14.7;-16.7;-19;-21.1;-22.7;-23.7;-23.9;-23.3;-21.8;-19.5;-16.2;-11.9;-6.68;-0.854;4.99;10;13.4;14.5;13.5;10.6;6.7;2.6;-0.938;-3.38;-4.4;-3.9;-1.99;0.992;4.62;8.39;12;15.1;17.6;19.4;20.3;20.4;19.4;17.7;15.5;13.3;11.4;10.2;9.68;9.79;10.3;10.9;11.2;10.7;9.27;6.8;3.62;0.45;-1.76;-2.12;-0.153;4.01;9.63;15.7;21.2;25.4;28;29;28.3;25.9;21.6;15.6;8.23;0.0687;-8;-15;-20.1;-22.6;-22.4;-19.6;-15;-9.44;-4.15;-0.0305;2.38;2.98;2.05;0.0153;-2.75;-5.97;-9.48;-13;-16.4;-19;-20.7;-21.3;-20.9;-20;-19;-18.2;-17.9;-17.9;-18.2;-18.3;-18;-17.1;-15.5;-13.3;-10.6;-7.73;-4.96;-2.67;-1.08;-0.282;-0.214;-0.694;-1.5;-2.41;-3.2;-3.72;-3.82;-3.44;-2.59;-1.35;0.145;1.73;3.23;4.46;5.25;5.53;5.36;4.94;4.49;4.2;4.14;4.27;4.62;5.16;5.78;6.26;6.27;5.52;3.94;1.8;-0.389;-2.07;-2.86;-2.87;-2.62;-2.82;-4.11;-6.67;-10.1;-13.9;-17;-19;-19.5;-18.5;-16.3;-13.2;-9.69;-6.3;-3.49;-1.44;-0.061;0.908;1.75;2.62;3.49;4.27;5.04;6.13;8;11;15.3;20.2;24.9;28.4;29.9;29.1;26.1;21.4;15.6;9.35;3.25;-2.18;-6.52;-9.46;-10.9;-11;-10.1;-8.54;-6.67;-4.63;-2.46;-0.137;2.23;4.32;5.66;5.79;4.38;1.33;-3.17;-8.77;-15.1;-21.8;-28.6;-35.4;-41.8;-47.4;-51.6;-53.7;-53.5;-50.7;-45.6;-38.8;-31.2;-23.4;-16.2;-10.1;-5.49;-2.56;-1.34;-1.62;-2.86;-4.37;-5.48;-5.81;-5.34;-4.33;-3.13;-1.94;-0.809;0.298;1.25;1.72;1.21;-0.633;-3.73;-7.39;-10.5;-11.7;-10.3;-5.97;0.839;9.15;17.8;25.9;32.5;37.1;39.4;39.2;36.7;32.3;26.8;21;15.5;11;7.55;5.3;4.2;4.19;5.2;7.1;9.64;12.5;15.4;17.9;19.9;21.2;21.9;22;21.5;20.6;19;16.4;12.9;8.16;2.59;-3.4;-9.27;-14.5;-18.9;-22.3;-24.8;-26.4;-27.3;-27.2;-26.2;-24.3;-21.7;-18.9;-16;-13.4;-11.2;-9.41;-7.9;-6.52;-5.08;-3.49;-1.83;-0.435;0.282;-0.0381;-1.52;-3.97;-6.95;-9.94;-12.5;-14.5;-15.8;-16.5;-16.6;-16.1;-15;-13.3;-11.3;-9.09;-7.02;-5.28;-3.94;-2.93;-2.03;-0.992;0.412;2.33;4.72;7.3;9.56;10.9;10.8;9.02;5.71;1.3;-3.55;-8.06;-11.5;-13.5;-13.6;-12;-8.8;-4.36;0.9;6.56;12.1;17.1;21;23.1;23.3;21.3;17.4;12.1;6.07;0.0534;-5.26;-9.41;-12.2;-13.7;-14.2;-14.2;-14.3;-14.9;-16.3;-18.4;-20.8;-23;-24.3;-24.3;-22.7;-19.7;-15.5;-10.3;-4.55;1.46;7.4;12.9;17.4;20.3;21.3;20;16.7;12.1;6.97;2.3;-1.24;-3.23;-3.57;-2.43;-0.16;2.85;6.22;9.66;13.1;16.4;19.8;23.1;26.4;29.3;31.4;32.1;30.8;27.4;22.1;15.4;8.17;1.31;-4.77;-9.94;-14.3;-17.8;-20;-20.3;-17.7;-11.6;-2.27;9.41;21.8;33.1;41.5;45.8;45.4;40.2;30.9;18.3;3.83;-11.3;-25.7;-38.3;-47.9;-53.9;-56.1;-54.6;-50;-43.2;-35.4;-27.9;-21.9;-18.4;-17.8;-19.9;-24;-28.9;-33.3;-36.4;-37.7;-37.2;-35.3;-32.5;-29.1;-25.5;-21.7;-17.9;-14.1;-10.6;-7.32;-4.26;-1.3;1.64;4.56;7.35;9.83;11.9;13.7;15.4;17.2;19.3;21.5;23.6;25.5;27.2;28.9;30.8;32.7;34.4;35.5;35.8;35;33.4;31.2;28.8;26.4;24;21.5;18.6;15.2;11.3;7.34;3.78;1.04;-0.679;-1.45;-1.54;-1.14;-0.267;1.24;3.56;6.52;9.63;12;12.8;11.3;7.26;1.2;-6.22;-14.3;-22.5;-30.6;-38.7;-46.3;-53.1;-58.1;-60.6;-59.9;-56.1;-49.6;-41.4;-32.2;-23;-14.1;-5.79;1.73;8.43;14.2;19;22.5;24.5;24.6;23.2;20.5;17.3;14.3;11.9;10;8.04;5.25;1.3;-3.5;-8.29;-12;-13.9;-13.7;-12;-9.49;-7.04;-4.99;-3.35;-1.92;-0.557;0.641;1.37;1.27;0.107;-2.12;-5.13;-8.47;-11.6;-14;-15.3;-15.5;-14.8;-13.5;-12;-10.7;-9.74;-9;-8.19;-6.97;-5.13;-2.73;-0.061;2.44;4.3;5.23;5.21;4.39;3.02;1.38;-0.343;-2;-3.35;-4.07;-3.75;-2.08;1.02;5.34;10.4;15.7;20.8;25.2;28.5;30.6;31;29.8;26.9;22.7;17.7;13.1;9.53;7.92;8.55;11.2;15.4;20.1;24.5;27.8;29.7;30;28.5;25.2;20.4;14.4;7.77;1.24;-4.63;-9.46;-13.1;-15.6;-17.2;-17.9;-18.1;-17.9;-17.6;-17.6;-18.1;-19.3;-21.1;-23.4;-26.2;-29.3;-32.6;-36.1;-39.4;-42.4;-44.8
gyr_y;-1.76;1.4;4.46;7.42;10.3;13.1;15.9;18.7;21.5;24.2;26.6;28.8;30.6;31.8;32.6;32.8;32.5;31.7;30.5;29.1;27.4;25.6;23.6;21.4;19;16.2;13.1;9.71;6.08;2.33;-1.46;-5.2;-8.86;-12.4;-15.7;-18.9;-21.9;-24.6;-27;-29.1;-30.8;-32.1;-33.1;-33.6;-33.8;-33.5;-32.8;-31.6;-30.1;-28.4;-26.4;-24.4;-22.2;-19.9;-17.6;-15.3;-13;-10.8;-8.75;-6.81;-5.01;-3.38;-1.86;-0.381;1.15;2.85;4.78;7;9.54;12.4;15.4;18.4;21.4;24;26.1;27.6;28.5;28.8;28.7;28.2;27.5;26.7;25.7;24.6;23.2;21.2;18.7;15.5;11.6;7.09;2.18;-2.93;-8.03;-12.9;-17.4;-21.3;-24.6;-27.2;-29.2;-30.7;-31.7;-32.4;-32.8;-33;-33;-32.7;-32.2;-31.2;-29.8;-27.9;-25.5;-22.5;-19.1;-15.5;-11.9;-8.4;-5.26;-2.62;-0.511;1.06;2.22;3.15;4.08;5.23;6.72;8.63;10.9;13.4;15.9;18.3;20.3;22;23.1;23.9;24.3;24.6;24.7;24.8;25;25.3;25.5;25.7;25.5;24.9;23.8;22.1;20;17.5;14.7;11.7;8.54;5.33;2.05;-1.25;-4.6;-7.99;-11.4;-14.8;-18;-21.1;-23.8;-26.2;-28.3;-30;-31.3;-32.5;-33.4;-34.2;-34.8;-35.3;-35.5;-35.4;-34.9;-33.7;-31.9;-29.5;-26.5;-22.9;-18.9;-14.7;-10.3;-5.95;-1.66;2.46;6.33;9.93;13.2;16.3;19.1;21.6;23.8;25.7;27.3;28.5;29.1;29.2;28.8;27.9;26.5;24.8;23;21;18.9;16.8;14.4;11.8;8.93;5.71;2.23;-1.37;-4.89;-8.11;-10.8;-13;-14.4;-15.3;-15.8;-16;-16.1;-16.5;-17.2;-18.2;-19.5;-20.9;-22.3;-23.6;-24.6;-25.3;-25.7;-25.9;-25.9;-25.8;-25.6;-25.5;-25.3;-25.1;-24.6;-23.8;-22.5;-20.5;-17.9;-14.6;-11;-6.98;-2.89;1.14;4.98;8.57;11.9;15.1;18.1;21.2;24.5;27.9;31.5;35;38.3;41.1;43.1;44.2;44.3;43.4;41.6;39;36;32.6;29.2;25.7;22.3;18.9;15.4;11.9;8.1;4.07;-0.221;-4.72;-9.32;-13.9;-18.2;-22.3;-25.8;-28.8;-31.3;-33.1;-34.4;-35.3;-35.9;-36.2;-36.4;-36.4;-36.1;-35.5;-34.5;-33.1;-31.3;-29.2;-26.7;-24.1;-21.2;-18.5;-15.8;-13.5;-11.3;-9.37;-7.51;-5.62;-3.56;-1.18;1.6;4.85;8.51;12.4;16.4;20.1;23.5;26.2;28.3;29.8;30.8;31.2;31.3;31.1;30.6;30;29;27.7;25.9;23.6;20.8;17.6;14;10.1;6.01;1.98;-1.9;-5.5;-8.76;-11.6;-14.2;-16.4;-18.4;-20.3;-22;-23.6;-25;-26.2;-27.2;-28.1;-28.8;-29.5;-30;-30.5;-30.8;-30.9;-30.8;-30.5;-29.9;-29;-27.9;-26.3;-24.4;-22;-19.3;-16.1;-12.6;-8.83;-4.94;-1.01;2.84;6.57;10.2;13.7;17.2;20.5;23.7;26.7;29.6;32.1;34.2;35.9;37.1;37.7;37.8;37.4;36.6;35.6;34.2;32.5;30.6;28.4;25.9;23.1;20;16.7;13.2;9.53;5.74;1.91;-1.91;-5.6;-9.08;-12.3;-15.2;-17.8;-19.9;-21.8;-23.3;-24.8;-26.2;-27.8;-29.4;-31.2;-33;-34.7;-35.9;-36.7;-37;-36.7;-35.9;-34.8;-33.4;-32;-30.6;-29.2;-27.7;-26.1;-24.2;-21.8;-18.9;-15.4;-11.4;-6.99;-2.39;2.22;6.64;10.7;14.2;17.1;19.5;21.3;22.8;23.9;24.7;25.5;26;26.4;26.5;26.1;25.2;23.6;21.5;18.8;15.7;12.4;9.12;6.1;3.49;1.38;-0.252;-1.5;-2.53;-3.52;-4.67;-6.07;-7.76;-9.66;-11.6;-13.5;-15;-16;-16.4;-16.1;-15.2;-13.9;-12.5;-11.3;-10.5;-10.1;-10.2;-10.5;-10.9;-10.9;-10.3;-9.06;-7.11;-4.59;-1.73;1.22;4;6.4;8.35;9.89;11.1;12.2;13.4;14.9;16.6;18.6;20.7;22.7;24.3;25.3;25.5;25;23.8;21.9;19.8;17.4;15.1;13;11.1;9.43;7.92;6.39;4.65;2.58;0.107;-2.71;-5.71;-8.68;-11.4;-13.7;-15.5;-16.8;-17.5;-17.8;-17.8;-17.7;-17.7;-17.8;-18.2;-18.9;-19.7;-20.4;-20.8;-20.9;-20.4;-19.3;-17.8;-15.9;-13.8;-11.7;-9.83;-8.29;-7.16;-6.42;-5.94;-5.58;-5.18;-4.63;-3.91;-3.07;-2.2;-1.4;-0.74;-0.298;-0.107;-0.16;-0.404;-0.778;-1.17;-1.53;-1.78;-1.92;-1.98;-1.94;-1.8;-1.52;-1.01;-0.221;0.839;2.11;3.46;4.74;5.81;6.58;6.98;7.03;6.77;6.25;5.56;4.77;3.93;3.09;2.27;1.5;0.793;0.153;-0.427;-0.954;-1.37;-1.63;-1.64;-1.37;-0.839;-0.0381;0.992;2.27;3.79;5.54;7.49;9.58;11.7;13.9;16;18;19.9;21.5;22.7;23.5;23.9;23.7;23;21.7;19.9;17.6;15;12.2;9.37;6.57;3.89;1.35;-1.01;-3.17;-5.1;-6.81;-8.34;-9.68;-10.8;-11.8;-12.7;-13.4;-14;-14.7;-15.2;-15.8;-16.2;-16.5;-16.6;-16.6;-16.5;-16.4;-16.1;-15.9;-15.5;-14.9;-14.3;-13.7;-13;-12.2;-11.5;-10.9;-10.3;-9.98;-9.81;-9.83;-9.99;-10.2;-10.4;-10.4;-10.1;-9.42;-8.33;-6.81;-4.89;-2.7;-0.389;1.91;4.1;6.12;7.97;9.66;11.2;12.7;14;15.2;16.2;16.9;17.1;16.7;15.8;14.3;12.3;9.91;7.22;4.4;1.66;-0.839;-2.95;-4.62;-5.83;-6.66;-7.21;-7.58;-7.8;-7.88;-7.78;-7.46;-6.88;-6.03;-4.91;-3.52;-1.88;-0.0763;1.79;3.59;5.16;6.41;7.24;7.65;7.71;7.55;7.28;7.08;7.08;7.35;7.91;8.72;9.64;10.5;11.2;11.5;11.6;11.4;11;10.5;10;9.67;9.53;9.6;9.83;10.2;10.5;10.7;10.7;10.5;9.95;9.14;8.15;7.09;6.05;5.12;4.32;3.63;3.01;2.36;1.59;0.595;-0.687;-2.28;-4.17;-6.26;-8.43;-10.6;-12.6;-14.3;-15.8;-17;-17.9;-18.6;-19.2;-19.7;-20.2;-20.7;-21.2;-21.7;-22.1;-22.4;-22.6;-22.6;-22.2;-21.5;-20.3;-18.8;-16.9;-14.8;-12.5;-10.1;-7.53;-4.98;-2.48;-0.0687;2.2;4.34;6.39;8.4;10.4;12.5;14.6;16.6;18.4;19.8;20.8;21.3;21.3;20.9;20.1;19.3;18.6;18.1;18.1;18.3;18.9;19.6;20.1;20.3;19.9;18.9;17.2;15;12.3;9.41;6.57;3.94;1.65;-0.252;-1.79;-3.07;-4.23;-5.43;-6.81;-8.45;-10.3;-12.4;-14.4;-16.3;-17.8;-19;-19.7;-20.1;-20.4;-20.7;-21.1;-21.8;-22.6;-23.5;-24.2;-24.6;-24.5;-23.6;-22.1;-20;-17.5;-15;-12.6;-10.6;-9.04;-7.87;-6.97;-6.1;-5.04;-3.54;-1.48;1.14;4.21;7.58;11;14.3;17.3;19.6;21.3;22.4;22.7;22.6;22.1;21.4;20.8;20.3;20.2;20.3;20.5;20.8;21;20.8;20.1;19;17.3;15.1;12.7;9.98;7.19;4.42;1.78;-0.641;-2.75;-4.51;-5.97;-7.18;-8.26;-9.3;-10.3;-11.4;-12.4;-13.3;-13.9;-14.3;-14.4;-14.1;-13.5;-12.7;-11.8;-11.1;-10.7;-10.8;-11.4;-12.4;-13.7;-15;-16.2;-17;-17.3;-17;-16;-14.5;-12.5;-10.2;-7.76;-5.38;-3.12;-1.02;0.893;2.64;4.23;5.65;6.92;8.01;8.93;9.67;10.2;10.5;10.6;10.5;10.1;9.54;8.77;7.87;6.89;5.82;4.65;3.39;2.11;0.893;-0.137;-0.893;-1.28;-1.29;-0.946;-0.336;0.42;1.19;1.89;2.46;2.87;3.17;3.46;3.87;4.52;5.46;6.69;8.09;9.5;10.7;11.3;11.3;10.5;8.96;6.87;4.41;1.88;-0.45;-2.36;-3.75;-4.6;-5.06;-5.29;-5.47;-5.74;-6.2;-6.88;-7.77;-8.78;-9.77;-10.6;-11.1;-11.3;-11.1;-10.5;-9.64;-8.58;-7.48;-6.46;-5.62;-4.97;-4.47;-4.11;-3.85;-3.67;-3.52;-3.4;-3.33;-3.37;-3.57;-3.96;-4.52;-5.2;-5.89;-6.47;-6.82;-6.87;-6.59;-6.07;-5.4;-4.75;-4.22;-3.91;-3.81;-3.85;-3.9;-3.79;-3.43;-2.75;-1.84;-0.809;0.198;1.04;1.63;1.91;1.94;1.8;1.63;1.56;1.7;2.09;2.71;3.51;4.42;5.38;6.32;7.22;7.98;8.57;8.9;8.96;8.71;8.16;7.39;6.47;5.55;4.78;4.26;4.07;4.2;4.57;5.06;5.55;5.94;6.1;5.97;5.49;4.61;3.39;1.92;0.366;-1.11;-2.39;-3.31;-3.81;-3.88;-3.52;-2.82;-1.94;-1.03;-0.237;0.343;0.694;0.816;0.755;0.603;0.412;0.252;0.122;0.0305;-0.0381;-0.0992;-0.183;-0.305;-0.488;-0.771;-1.18;-1.72;-2.35;-3.01;-3.56;-3.91;-4.01;-3.79;-3.3;-2.61;-1.82;-1.03;-0.381;0.0534;0.244;0.214;0.0381;-0.191;-0.397;-0.542;-0.595;-0.587;-0.603;-0.732;-1.11;-1.8;-2.82;-4.1;-5.53;-6.96;-8.26;-9.34;-10.1;-10.7;-10.9;-11;-10.9;-10.9;-11;-11.3;-11.7;-12.1;-12.4;-12.4;-12.1;-11.2;-9.86;-8.09;-6.13;-4.23;-2.68;-1.71;-1.38;-1.66;-2.33;-3.12;-3.73;-3.93;-3.55;-2.54;-1.02;0.824;2.77;4.55;6.01;7.04;7.64;7.88;7.92;7.91;8.04;8.4;9.05;9.96;11.1;12.2;13.3;14.2;14.7;14.9;14.6;13.9;12.8;11.5;10.1;8.58;7.04;5.45;3.75;1.9;-0.122;-2.29;-4.55;-6.81;-8.9;-10.7;-12.1;-13.1;-13.6;-13.8;-13.6;-13.4;-13;-12.7;-12.5;-12.5;-12.6;-12.9;-13.3;-13.8;-14.3;-14.7;-14.9;-14.8;-14.3;-13.3;-11.8;-9.98;-7.8;-5.46;-3.15;-0.984;0.954;2.62;4.04;5.34;6.69;8.29;10.3;12.6;15.2;18;20.7;23.2;25.3;26.8;27.7;27.7;27.1;25.9;24.2;22.3;20.4;18.6;17;15.6;14.3;12.9;11.4;9.54;7.27;4.55;1.47;-1.82;-5.1;-8.16;-10.8;-13;-14.8;-16.2;-17.3;-18.4;-19.5;-20.7;-22;-23.4;-24.7;-25.8;-26.7;-27.1;-27;-26.4;-25.3;-23.8;-22;-20.2;-18.5;-17.1;-15.9;-14.9;-14;-13;-11.7;-10.1;-8.04;-5.68;-3.1;-0.427;2.15;4.51;6.56;8.32;9.83;11.2;12.4;13.7;15;16.5;18;19.5;20.9;22;22.7;22.8;22.5;21.7;20.5;19.1;17.7;16.3;15.1;14.1;13.2;12.4;11.6;10.9;10;9.1;8.03;6.82;5.49;4.04;2.49;0.877;-0.763;-2.36;-3.81;-5.1;-6.19;-7.16;-8.08;-9.05;-10.1;-11.4;-12.8;-14.4;-16.1;-17.6;-18.8;-19.5;-19.7;-19.2;-18.1;-16.4;-14.1;-11.5;-8.69;-5.78;-2.94;-0.259;2.19;4.39;6.37;8.22;10;11.8;13.7;15.5;17.3;18.8;19.9;20.5;20.5;19.8;18.6;16.8;14.6;12.2;9.74;7.41;5.29;3.4;1.67;-0.0458;-1.86;-3.85;-5.96;-8.13;-10.2;-12.2;-13.9;-15.3;-16.4;-17.2;-17.6;-17.6;-17.3;-16.8;-16.2;-15.6;-15.2;-15;-15;-15;-15;-14.7;-14.2;-13.3;-12;-10.5;-8.71;-6.82;-4.88;-2.98;-1.17;0.412;1.69;2.61;3.13;3.24;3.01;2.54;2.04;1.75;1.91;2.65;4.01;5.88;8.08;10.3;12.3;13.7;14.4;14.4;13.6;12.3;10.6;8.87;7.35;6.23;5.62;5.49;5.74;6.2;6.69;7.07;7.22;7.08;6.69;6.17;5.67;5.33;5.23;5.4;5.83;6.38;6.9;7.23;7.18;6.69;5.73;4.37;2.77;1.13;-0.328;-1.45;-2.14;-2.46;-2.49;-2.36;-2.21;-2.14;-2.21;-2.43;-2.79;-3.25;-3.77;-4.3;-4.78;-5.17;-5.44;-5.57;-5.61;-5.59;-5.55;-5.54;-5.56;-5.65;-5.83;-6.13;-6.56;-7.16;-7.9;-8.74;-9.64;-10.6;-11.5;-12.5;-13.3;-14.1;-14.7;-15.2;-15.4;-15.4;-15;-14.3;-13.2;-11.8;-10.1;-8.17;-6.17;-4.17;-2.25;-0.496;1.03;2.3;3.29;3.96;4.33;4.42;4.26;3.89;3.38;2.78;2.12;1.45;0.778;0.0763;-0.626;-1.34;-2.04;-2.69;-3.17;-3.44;-3.4;-3.04;-2.38;-1.43;-0.259;1.11;2.59;4.13;5.63;7.03;8.27;9.32;10.2;10.9;11.6;12.3;12.9;13.6;14.2;14.8;15.2;15.4;15.4;15.1;14.5;13.7;12.6;11.2;9.62;7.89;6.13;4.51;3.17;2.26;1.82;1.84;2.22;2.82;3.46;3.96;4.2;4.14;3.82;3.36;2.9;2.58;2.48;2.63;2.96;3.33;3.55;3.43;2.78;1.46;-0.603;-3.35;-6.61;-10.1;-13.7;-16.9;-19.8;-22;-23.6;-24.6;-25.1;-25.1;-24.9;-24.5;-24.1;-23.8;-23.5;-23.2;-22.8;-22.2;-21.3;-20;-18.3;-16.1;-13.7;-11.1;-8.61;-6.26;-4.17;-2.42;-1.01;0.061;0.824;1.37;1.73;2.01;2.24;2.44;2.64;2.81;2.92;2.99;3.06;3.2;3.49;4;4.75;5.77;7.02
gyr_z;0.984;2.27;3.14;3.65;3.87;3.97;4.07;4.25;4.5;4.77;4.93;4.9;4.59;3.95;2.99;1.73;0.237;-1.41;-3.06;-4.56;-5.76;-6.55;-6.91;-6.88;-6.55;-6.02;-5.38;-4.69;-3.98;-3.24;-2.46;-1.66;-0.893;-0.221;0.259;0.496;0.473;0.191;-0.343;-1.11;-2.11;-3.29;-4.58;-5.89;-7.13;-8.22;-9.08;-9.71;-10.1;-10.4;-10.6;-10.6;-10.4;-10.2;-9.7;-9.06;-8.16;-7.02;-5.67;-4.21;-2.78;-1.52;-0.504;0.252;0.832;1.36;1.99;2.79;3.8;4.98;6.23;7.42;8.36;8.86;8.75;8;6.65;4.8;2.67;0.534;-1.33;-2.67;-3.36;-3.44;-3.09;-2.56;-2.11;-1.95;-2.17;-2.72;-3.47;-4.24;-4.86;-5.17;-5.05;-4.43;-3.29;-1.72;0.13;2.04;3.77;5.13;5.97;6.18;5.78;4.81;3.36;1.58;-0.328;-2.16;-3.73;-4.9;-5.66;-6.1;-6.34;-6.55;-6.86;-7.35;-8.06;-8.92;-9.78;-10.4;-10.6;-10.1;-8.73;-6.59;-3.83;-0.702;2.46;5.32;7.63;9.16;9.85;9.74;8.97;7.8;6.47;5.17;4.01;3.02;2.2;1.46;0.702;-0.206;-1.32;-2.63;-4.05;-5.41;-6.56;-7.37;-7.77;-7.76;-7.41;-6.79;-6;-5.16;-4.34;-3.62;-2.98;-2.4;-1.81;-1.18;-0.557;0.0229;0.465;0.687;0.626;0.237;-0.526;-1.62;-2.94;-4.34;-5.58;-6.42;-6.71;-6.36;-5.42;-3.98;-2.2;-0.275;1.63;3.33;4.75;5.78;6.42;6.63;6.45;5.95;5.23;4.4;3.53;2.67;1.84;1.04;0.298;-0.389;-0.999;-1.48;-1.75;-1.72;-1.28;-0.427;0.801;2.25;3.75;5.04;5.91;6.2;5.88;5.06;3.92;2.74;1.75;1.14;1.01;1.26;1.7;2.04;1.98;1.34;0.00763;-1.95;-4.37;-7.06;-9.74;-12.2;-14.2;-15.7;-16.6;-16.8;-16.5;-15.8;-14.9;-14;-13.1;-12.1;-10.9;-9.54;-7.74;-5.46;-2.71;0.427;3.72;6.9;9.67;11.8;12.9;13.1;12.3;10.7;8.53;6.2;4.01;2.19;0.893;0.145;-0.168;-0.244;-0.32;-0.572;-1.11;-1.95;-2.98;-4.04;-4.88;-5.24;-4.96;-3.96;-2.32;-0.206;2.15;4.49;6.55;8.14;9.16;9.55;9.35;8.62;7.51;6.17;4.77;3.4;2.12;0.923;-0.259;-1.48;-2.82;-4.33;-6;-7.78;-9.51;-11;-12.1;-12.5;-12.4;-11.6;-10.3;-8.74;-7.04;-5.35;-3.8;-2.5;-1.55;-0.954;-0.671;-0.587;-0.526;-0.298;0.259;1.24;2.62;4.21;5.78;6.98;7.58;7.43;6.52;4.97;3.04;1.01;-0.9;-2.46;-3.57;-4.16;-4.23;-3.84;-3.11;-2.2;-1.29;-0.534;0.00763;0.343;0.572;0.778;1.04;1.37;1.75;2.16;2.55;2.83;2.9;2.66;2.04;1.08;-0.168;-1.59;-3.07;-4.55;-6;-7.37;-8.67;-9.88;-10.9;-11.8;-12.4;-12.6;-12.4;-11.8;-10.8;-9.47;-7.9;-6.15;-4.24;-2.24;-0.206;1.7;3.34;4.61;5.42;5.76;5.67;5.21;4.51;3.67;2.8;1.96;1.15;0.32;-0.603;-1.67;-2.9;-4.2;-5.49;-6.59;-7.39;-7.73;-7.57;-6.89;-5.75;-4.25;-2.48;-0.572;1.34;3.14;4.66;5.8;6.44;6.54;6.09;5.11;3.71;1.98;0.0687;-1.89;-3.78;-5.52;-7.08;-8.52;-9.97;-11.5;-13.2;-14.9;-16.4;-17.5;-17.9;-17.4;-16.1;-14;-11.3;-8.44;-5.54;-2.94;-0.832;0.633;1.43;1.66;1.46;1.04;0.572;0.198;-0.0229;-0.13;-0.206;-0.389;-0.786;-1.5;-2.56;-3.97;-5.67;-7.55;-9.41;-11;-12.1;-12.5;-12.1;-11.1;-9.48;-7.66;-5.87;-4.34;-3.24;-2.61;-2.39;-2.43;-2.59;-2.67;-2.54;-2.14;-1.47;-0.679;0.0305;0.397;0.183;-0.732;-2.4;-4.69;-7.43;-10.3;-12.9;-14.9;-16;-16.1;-15.4;-14.1;-12.5;-11;-10.1;-9.77;-10.1;-10.9;-11.7;-12.2;-11.9;-10.7;-8.64;-5.92;-2.94;-0.0839;2.25;3.78;4.36;4.01;2.9;1.34;-0.282;-1.63;-2.45;-2.69;-2.49;-2.04;-1.65;-1.52;-1.81;-2.54;-3.63;-4.86;-5.98;-6.74;-6.9;-6.32;-5;-3.04;-0.74;1.53;3.43;4.65;5.05;4.67;3.68;2.35;0.984;-0.183;-0.977;-1.35;-1.32;-1.01;-0.626;-0.359;-0.404;-0.885;-1.82;-3.11;-4.62;-6.13;-7.4;-8.2;-8.37;-7.86;-6.71;-5.1;-3.29;-1.56;-0.198;0.572;0.679;0.175;-0.74;-1.8;-2.73;-3.36;-3.62;-3.49;-3.1;-2.54;-1.95;-1.43;-1.1;-1.01;-1.14;-1.4;-1.63;-1.75;-1.68;-1.44;-1.11;-0.763;-0.435;-0.114;0.259;0.755;1.4;2.15;2.91;3.53;3.81;3.6;2.84;1.56;-0.122;-1.99;-3.88;-5.58;-7;-8.01;-8.57;-8.67;-8.36;-7.67;-6.64;-5.31;-3.7;-1.83;0.221;2.36;4.44;6.32;7.88;9.08;9.93;10.4;10.5;10.3;9.59;8.46;6.93;5.06;3.01;0.954;-0.969;-2.65;-4.09;-5.34;-6.47;-7.48;-8.34;-8.91;-9.06;-8.68;-7.7;-6.11;-4.01;-1.53;1.19;3.96;6.61;9.04;11.1;12.8;14;14.6;14.7;14;12.8;10.9;8.58;5.94;3.14;0.359;-2.3;-4.72;-6.87;-8.71;-10.1;-11.1;-11.5;-11.2;-10.4;-9.05;-7.3;-5.32;-3.23;-1.16;0.847;2.69;4.24;5.42;6.15;6.38;6.16;5.62;4.92;4.27;3.81;3.54;3.4;3.25;2.94;2.37;1.48;0.305;-1.03;-2.39;-3.62;-4.64;-5.37;-5.81;-5.95;-5.83;-5.48;-4.97;-4.41;-3.87;-3.46;-3.21;-3.11;-3.02;-2.81;-2.29;-1.4;-0.183;1.18;2.48;3.46;3.98;3.94;3.4;2.45;1.24;-0.0763;-1.37;-2.55;-3.49;-4.15;-4.52;-4.62;-4.52;-4.36;-4.26;-4.31;-4.59;-5.06;-5.65;-6.21;-6.56;-6.52;-5.99;-4.93;-3.46;-1.79;-0.175;1.17;2.07;2.49;2.5;2.22;1.8;1.41;1.16;1.11;1.24;1.5;1.79;2.02;2.07;1.85;1.36;0.603;-0.313;-1.24;-1.99;-2.46;-2.56;-2.27;-1.59;-0.626;0.526;1.68;2.66;3.3;3.52;3.27;2.58;1.56;0.389;-0.755;-1.71;-2.37;-2.73;-2.87;-2.91;-2.97;-3.11;-3.32;-3.59;-3.88;-4.17;-4.47;-4.78;-5.05;-5.22;-5.2;-4.94;-4.39;-3.59;-2.62;-1.56;-0.549;0.305;0.908;1.19;1.09;0.633;-0.107;-1.02;-1.99;-2.88;-3.58;-4.04;-4.23;-4.17;-3.94;-3.65;-3.42;-3.34;-3.49;-3.86;-4.31;-4.65;-4.65;-4.09;-2.88;-1.05;1.24;3.67;5.92;7.66;8.67;8.86;8.26;6.96;5.16;3.11;1.03;-0.816;-2.26;-3.2;-3.65;-3.7;-3.56;-3.41;-3.43;-3.72;-4.3;-5.13;-6.13;-7.08;-7.77;-8.05;-7.84;-7.21;-6.39;-5.62;-5.2;-5.26;-5.8;-6.66;-7.53;-8.08;-8.06;-7.34;-5.98;-4.2;-2.31;-0.694;0.313;0.481;-0.275;-1.83;-3.94;-6.26;-8.38;-9.95;-10.7;-10.6;-9.61;-7.81;-5.48;-2.92;-0.496;1.5;2.85;3.42;3.23;2.39;1.08;-0.458;-1.95;-3.17;-4;-4.36;-4.35;-4.08;-3.7;-3.35;-3.15;-3.14;-3.29;-3.53;-3.79;-4;-4.07;-3.94;-3.54;-2.87;-1.94;-0.854;0.252;1.21;1.88;2.11;1.82;0.984;-0.282;-1.86;-3.55;-5.14;-6.48;-7.43;-7.96;-8.13;-8.08;-7.97;-8;-8.26;-8.81;-9.59;-10.5;-11.2;-11.7;-11.6;-10.8;-9.29;-7.13;-4.48;-1.64;1.09;3.43;5.17;6.2;6.49;6.1;5.14;3.72;1.97;-0.0153;-2.08;-4.12;-6.02;-7.68;-9.03;-9.99;-10.6;-10.7;-10.4;-9.68;-8.65;-7.37;-5.94;-4.46;-2.98;-1.52;-0.0687;1.39;2.88;4.38;5.85;7.26;8.48;9.42;9.95;9.93;9.28;8.03;6.27;4.23;2.19;0.404;-0.893;-1.61;-1.81;-1.68;-1.5;-1.54;-2.03;-3.07;-4.6;-6.44;-8.25;-9.67;-10.4;-10.2;-8.91;-6.71;-3.81;-0.526;2.72;5.55;7.68;9;9.44;9.09;8.07;6.55;4.73;2.81;0.946;-0.778;-2.33;-3.75;-5.05;-6.27;-7.39;-8.35;-9.09;-9.49;-9.51;-9.09;-8.23;-6.97;-5.4;-3.69;-2.05;-0.694;0.244;0.717;0.809;0.694;0.587;0.656;0.977;1.5;2.08;2.5;2.58;2.22;1.43;0.328;-0.862;-1.91;-2.62;-2.92;-2.82;-2.47;-2.05;-1.75;-1.69;-1.88;-2.25;-2.63;-2.82;-2.68;-2.11;-1.16;0.0916;1.5;2.92;4.22;5.28;6.03;6.48;6.61;6.42;5.86;4.84;3.39;1.56;-0.42;-2.31;-3.85;-4.79;-5.05;-4.63;-3.62;-2.22;-0.633;0.938;2.35;3.48;4.26;4.66;4.67;4.36;3.79;3.09;2.41;1.93;1.78;2.03;2.62;3.38;4.11;4.63;4.79;4.54;3.9;2.95;1.82;0.664;-0.412;-1.3;-1.94;-2.28;-2.31;-2.05;-1.56;-0.862;-0.0458;0.824;1.68;2.45;3.11;3.72;4.32;4.96;5.67;6.45;7.25;7.97;8.49;8.7;8.48;7.79;6.65;5.15;3.5;1.88;0.519;-0.45;-0.961;-1.04;-0.786;-0.366;0.0763;0.427;0.626;0.702;0.725;0.786;0.984;1.4;2.08;2.95;3.97;4.95;5.74;6.17;6.14;5.6;4.59;3.21;1.69;0.267;-0.801;-1.33;-1.23;-0.565;0.435;1.45;2.11;2.11;1.31;-0.206;-2.17;-4.19;-5.78;-6.55;-6.26;-4.91;-2.7;0.0153;2.85;5.44;7.48;8.76;9.21;8.9;7.98;6.7;5.29;3.96;2.89;2.19;1.82;1.69;1.65;1.53;1.25;0.748;0.0687;-0.702;-1.45;-2.06;-2.46;-2.58;-2.46;-2.16;-1.79;-1.46;-1.26;-1.24;-1.4;-1.72;-2.08;-2.33;-2.34;-2.04;-1.46;-0.732;-0.0381;0.45;0.58;0.298;-0.404;-1.5;-2.96;-4.71;-6.63;-8.59;-10.4;-11.9;-12.8;-13.2;-12.9;-12;-10.4;-8.38;-5.98;-3.46;-1.08;0.916;2.32;3.07;3.23;2.98;2.51;2.03;1.69;1.6;1.78;2.14;2.57;2.88;2.92;2.59;1.85;0.679;-0.847;-2.59;-4.36;-5.88;-6.92;-7.32;-6.99;-5.94;-4.28;-2.27;-0.221;1.58;2.89;3.65;3.88;3.69;3.28;2.86;2.63;2.67;2.96;3.34;3.62;3.57;3.04;1.94;0.259;-1.89;-4.3;-6.68;-8.71;-10.1;-10.8;-10.7;-9.9;-8.55;-6.9;-5.21;-3.75;-2.7;-2.16;-2.06;-2.24;-2.49;-2.62;-2.49;-2.05;-1.37;-0.565;0.175;0.641;0.71;0.328;-0.45;-1.47;-2.55;-3.51;-4.18;-4.44;-4.21;-3.49;-2.37;-1.01;0.343;1.46;2.18;2.43;2.28;1.86;1.37;0.977;0.801;0.908;1.3;1.89;2.59;3.28;3.81;4.07;4.01;3.59;2.85;1.82;0.542;-0.916;-2.47;-4;-5.36;-6.39;-6.97;-7.03;-6.59;-5.77;-4.74;-3.68;-2.73;-1.98;-1.45;-1.08;-0.771;-0.404;0.13;0.885;1.87;3.04;4.32;5.6;6.74;7.59;7.99;7.84;7.11;5.86;4.19;2.27;0.313;-1.5;-2.98;-3.98;-4.43;-4.33;-3.83;-3.09;-2.31;-1.68;-1.28;-1.15;-1.18;-1.22;-1.06;-0.557;0.328;1.52;2.88;4.22;5.36;6.14;6.49;6.41;5.97;5.33;4.6;3.88;3.26;2.82;2.59;2.59;2.77;3.02;3.21;3.18;2.79;1.93;0.603;-1.11;-3.01;-4.84;-6.34;-7.27;-7.46;-6.87;-5.6;-3.81;-1.73;0.397;2.4;4.14;5.55;6.53;6.99;6.8;5.9;4.33;2.24;-0.122;-2.39;-4.17;-5.15;-5.15;-4.19;-2.5;-0.45;1.57;3.18;4.16;4.39;3.92;2.91;1.59;0.275;-0.824;-1.53;-1.8;-1.66;-1.23;-0.664;-0.175;0.0534;-0.0763;-0.595;-1.41;-2.37;-3.23;-3.79;-3.87;-3.4;-2.46;-1.27;-0.114;0.755;1.13;0.931;0.183;-0.999;-2.38;-3.67;-4.56;-4.81;-4.31;-3.11;-1.38;0.618;2.58;4.28;5.54;6.27;6.46;6.16;5.47;4.48;3.31;2.08;0.839;-0.328;-1.39;-2.3;-3.04;-3.61;-4.01;-4.26;-4.42;-4.49;-4.49;-4.42;-4.3;-4.15;-3.95;-3.7;-3.36;-2.92;-2.4;-1.85;-1.34;-0.946;-0.702;-0.603;-0.565;-0.519;-0.412;-0.237;-0.0534;0.0381;-0.0687;-0.465;-1.16;-2.1;-3.19;-4.39;-5.68;-7.04;-8.48;-9.92;-11.3;-12.4;-13.2;-13.6;-13.5;-12.9;-11.9;-10.7;-9.38;-7.97;-6.54;-5.07;-3.53;-1.88;-0.153;1.62;3.3;4.73;5.77;6.35;6.45;6.09;5.27;4;2.3;0.198;-2.21;-4.77;-7.25;-9.43;-11.2;-12.4;-13;-13.1;-12.8;-12;-11;-9.7;-8.32;-6.84;-5.36;-3.92;-2.57;-1.34;-0.229;0.786;1.8;2.89;4.12;5.46;6.77;7.82;8.35;8.1;6.99;5.02;2.39;-0.618;-3.66;-6.39;-8.49;-9.8;-10.3;-10;-9.29;-8.35;-7.48;-6.9;-6.69;-6.86;-7.29;-7.77;-8.04;-7.86;-7.03;-5.54;-3.46;-0.977;1.73;4.43;6.88;8.83;10.1;10.4;9.83;8.42;6.35;3.87;1.25;-1.26;-3.46;-5.24;-6.59;-7.54;-8.14;-8.48;-8.63;-8.67;-8.62;-8.48;-8.18;-7.64;-6.81;-5.68;-4.31;-2.82;-1.32;0.0381;1.15;1.99;2.53;2.79;2.88;2.87;2.82;2.75;2.64
chunkTimeUtcMs;1676999859346;chunkTimeLocalMs;2429831
acc_x;2.54;2.49;2.28;2.02;1.81;1.72;1.76;1.9;2.09;2.19;2.09;1.86;1.58;1.35;1.32;1.61;2.14;2.77;3.27;3.51;3.41;2.96;2.26;1.42;0.637;0.0742;-0.23;-0.316;-0.309;-0.323;-0.39;-0.529;-0.759;-1.09;-1.47;-1.8;-1.95;-1.9;-1.73;-1.5;-1.26;-1.1;-1.01;-0.97;-1.02;-1.12;-1.27;-1.49;-1.72;-1.91;-2.1;-2.28;-2.43;-2.56;-2.71;-2.89;-3.06;-3.21;-3.39;-3.59;-3.74;-3.85;-3.89;-3.87;-3.73;-3.55;-3.4;-3.29;-3.21;-3.19;-3.25;-3.38;-3.53;-3.61;-3.54;-3.3;-2.94;-2.52;-2.15;-1.93;-1.85;-1.82;-1.81;-1.83;-1.86;-1.85;-1.79;-1.64;-1.42;-1.1;-0.637;-0.136;0.316;0.713;1.12;1.57;2.02;2.4;2.74;3.09;3.48;3.88;4.28;4.64;4.91;4.95;4.68;4.22;3.65;3.04;2.59;2.43;2.59;3.07;3.77;4.49;5.06;5.42;5.61;5.66;5.64;5.66;5.7;5.65;5.54;5.33;5.09;4.98;5.01;5.09;5.25;5.43;5.55;5.6;5.55;5.38;5.03;4.54;4.03;3.64;3.43;3.41;3.55;3.83;4.19;4.47;4.64;4.64;4.43;4.01;3.39;2.59;1.75;1.06;0.663;0.582;0.769;1.17;1.6;1.8;1.58;0.955;0.11;-0.754;-1.51;-2.09;-2.5;-2.76;-2.84;-2.68;-2.31;-1.77;-1.19;-0.713;-0.448;-0.397;-0.613;-1.13;-1.92;-2.85;-3.76;-4.51;-4.92;-4.91;-4.44;-3.6;-2.58;-1.64;-1.03;-0.9;-1.24;-1.91;-2.67;-3.29;-3.61;-3.61;-3.32;-2.73;-1.93;-1.05;-0.182;0.613;1.23;1.6;1.73;1.64;1.36;0.97;0.582;0.292;0.148;0.227;0.534;1.05;1.69;2.25;2.56;2.56;2.19;1.44;0.488;-0.426;-1.12;-1.45;-1.29;-0.69;0.16;1.07;1.89;2.41;2.52;2.21;1.56;0.781;0;-0.666;-1.06;-1.07;-0.766;-0.29;0.18;0.445;0.431;0.148;-0.369;-1.02;-1.7;-2.3;-2.76;-3.1;-3.32;-3.41;-3.38;-3.27;-3.14;-3.06;-3.06;-3.17;-3.47;-3.99;-4.6;-5.08;-5.35;-5.37;-4.95;-4.07;-2.89;-1.61;-0.464;0.247;0.347;-0.0335;-0.642;-1.35;-1.98;-2.37;-2.52;-2.49;-2.3;-2.04;-1.79;-1.6;-1.45;-1.3;-1.12;-0.982;-0.936;-0.943;-1.01;-1.11;-1.18;-1.21;-1.14;-0.907;-0.453;0.187;0.881;1.51;1.95;2.06;1.75;1.04;0.129;-0.795;-1.61;-2.16;-2.33;-2.12;-1.68;-1.15;-0.649;-0.393;-0.5;-0.905;-1.52;-2.25;-2.98;-3.55;-3.8;-3.67;-3.26;-2.69;-2.14;-1.75;-1.48;-1.26;-1.14;-1.22;-1.49;-2.04;-2.88;-3.82;-4.72;-5.42;-5.79;-5.78;-5.43;-4.76;-3.9;-2.93;-1.93;-1.09;-0.625;-0.577;-0.886;-1.49;-2.19;-2.77;-3.14;-3.25;-2.95;-2.27;-1.44;-0.637;0.00958;0.378;0.441;0.189;-0.318;-0.903;-1.37;-1.56;-1.38;-0.864;-0.0503;0.869;1.64;2.15;2.44;2.48;2.26;1.85;1.39;0.965;0.606;0.369;0.316;0.479;0.871;1.44;2.05;2.56;2.87;2.83;2.39;1.57;0.505;-0.553;-1.39;-1.85;-1.94;-1.74;-1.31;-0.826;-0.397;-0.0838;0.00718;-0.18;-0.553;-0.979;-1.36;-1.6;-1.68;-1.62;-1.48;-1.36;-1.27;-1.22;-1.3;-1.52;-1.77;-2.03;-2.35;-2.77;-3.1;-3.17;-3.01;-2.61;-2.01;-1.34;-0.8;-0.546;-0.606;-0.917;-1.38;-1.96;-2.6;-3.14;-3.46;-3.47;-3.16;-2.57;-1.8;-1.01;-0.407;-0.124;-0.175;-0.527;-1.04;-1.57;-1.97;-2.06;-1.84;-1.44;-0.91;-0.285;0.362;0.883;1.13;1.07;0.754;0.208;-0.457;-1.06;-1.45;-1.53;-1.26;-0.642;0.215;1.11;1.86;2.29;2.25;1.71;0.824;-0.153;-1.03;-1.73;-2.09;-1.94;-1.34;-0.464;0.464;1.29;1.89;2.18;2.2;2.07;1.87;1.57;1.2;0.783;0.376;0.0527;-0.0886;0.0503;0.52;1.25;2.13;3;3.65;3.96;3.9;3.51;2.9;2.16;1.41;0.776;0.4;0.35;0.622;1.17;1.78;2.28;2.55;2.5;2.08;1.37;0.618;-0.0144;-0.467;-0.63;-0.467;-0.0239;0.608;1.26;1.69;1.68;1.13;0.156;-1.01;-2.13;-3.09;-3.77;-4.02;-3.9;-3.49;-2.96;-2.43;-1.94;-1.55;-1.36;-1.46;-1.87;-2.65;-3.62;-4.53;-5.21;-5.53;-5.39;-4.69;-3.5;-2.05;-0.611;0.56;1.15;1.03;0.283;-0.915;-2.26;-3.39;-4.04;-4.08;-3.56;-2.62;-1.46;-0.347;0.438;0.79;0.816;0.577;0.0527;-0.723;-1.66;-2.53;-3.02;-2.96;-2.33;-1.21;0.218;1.71;2.98;3.78;4.05;3.79;3.03;1.93;0.711;-0.366;-1.05;-1.25;-0.96;-0.287;0.575;1.4;1.93;2.06;1.82;1.33;0.752;0.287;-0.0551;-0.342;-0.551;-0.685;-0.737;-0.639;-0.4;-0.0503;0.294;0.464;0.448;0.242;-0.196;-0.718;-1.15;-1.45;-1.61;-1.6;-1.48;-1.28;-1.05;-0.864;-0.8;-0.891;-1.09;-1.33;-1.51;-1.45;-1.05;-0.383;0.335;0.895;1.13;0.95;0.376;-0.407;-1.2;-1.87;-2.29;-2.3;-1.92;-1.22;-0.299;0.622;1.3;1.62;1.57;1.15;0.39;-0.622;-1.69;-2.58;-3.12;-3.2;-2.79;-1.98;-1.02;-0.187;0.314;0.412;0.0958;-0.582;-1.47;-2.28;-2.8;-2.9;-2.59;-2.06;-1.57;-1.23;-1.11;-1.18;-1.35;-1.56;-1.85;-2.17;-2.43;-2.61;-2.73;-2.83;-3;-3.26;-3.64;-4.1;-4.53;-4.84;-4.98;-5.02;-5.03;-4.98;-4.78;-4.37;-3.79;-3.06;-2.28;-1.67;-1.38;-1.46;-1.77;-2.19;-2.57;-2.81;-2.84;-2.72;-2.44;-2;-1.45;-0.907;-0.496;-0.278;-0.302;-0.546;-0.876;-1.13;-1.21;-1.03;-0.622;-0.0551;0.532;1.02;1.39;1.61;1.66;1.6;1.48;1.36;1.27;1.32;1.64;2.23;3.11;4.15;5.12;5.81;6.05;5.82;5.24;4.54;3.93;3.56;3.4;3.4;3.45;3.48;3.43;3.29;2.97;2.46;1.89;1.36;1.02;0.929;1.1;1.49;1.93;2.22;2.21;1.94;1.49;0.958;0.455;-0.00239;-0.445;-0.802;-0.979;-0.931;-0.649;-0.194;0.271;0.582;0.67;0.541;0.218;-0.278;-0.912;-1.61;-2.25;-2.65;-2.67;-2.32;-1.74;-1.14;-0.788;-0.8;-1.26;-2.12;-3.15;-3.96;-4.3;-4.08;-3.36;-2.32;-1.31;-0.601;-0.35;-0.634;-1.44;-2.53;-3.68;-4.69;-5.39;-5.62;-5.32;-4.66;-3.86;-3.08;-2.42;-2.01;-1.84;-1.83;-1.92;-2.04;-2.17;-2.38;-2.75;-3.21;-3.65;-3.99;-4.12;-3.99;-3.63;-3.11;-2.53;-2;-1.54;-1.2;-1.03;-1.02;-1.14;-1.34;-1.5;-1.51;-1.33;-0.962;-0.472;0.0311;0.438;0.713;0.85;0.826;0.642;0.385;0.158;0.0622;0.201;0.622;1.29;2.09;2.82;3.28;3.34;2.97;2.31;1.53;0.91;0.713;1.02;1.68;2.57;3.54;4.37;4.84;4.81;4.3;3.46;2.47;1.53;0.826;0.503;0.524;0.728;0.974;1.06;0.869;0.498;-0.0215;-0.69;-1.37;-1.92;-2.27;-2.41;-2.34;-2.1;-1.71;-1.24;-0.855;-0.697;-0.831;-1.31;-2.03;-2.75;-3.23;-3.34;-2.96;-2.16;-1.11;-0.00958;0.886;1.41;1.51;1.2;0.575;-0.22;-1.04;-1.7;-2.07;-2.1;-1.87;-1.51;-1.13;-0.833;-0.675;-0.62;-0.606;-0.563;-0.488;-0.366;-0.156;0.129;0.469;0.886;1.29;1.51;1.53;1.47;1.4;1.36;1.45;1.73;2.16;2.65;3.09;3.38;3.47;3.31;2.95;2.47;1.93;1.44;1.12;1.07;1.28;1.59;1.86;2;2.01;1.92;1.75;1.54;1.36;1.27;1.27;1.29;1.34;1.51;1.8;2.15;2.55;2.99;3.35;3.51;3.42;3.17;2.82;2.5;2.3;2.26;2.42;2.72;3.07;3.44;3.78;4.01;4.08;4.03;3.86;3.6;3.33;3.11;2.94;2.81;2.77;2.77;2.8;2.91;3.06;3.2;3.38;3.57;3.77;3.97;4.11;4.08;3.89;3.58;3.2;2.77;2.38;2.06;1.75;1.41;1.08;0.747;0.383;-0.0527;-0.51;-0.864;-1.02;-0.893;-0.515;-0.0455;0.35;0.553;0.515;0.141;-0.611;-1.58;-2.56;-3.43;-4.01;-4.16;-3.8;-3.05;-2.15;-1.34;-0.781;-0.634;-0.934;-1.59;-2.47;-3.28;-3.73;-3.78;-3.56;-3.21;-2.89;-2.71;-2.67;-2.72;-2.77;-2.81;-2.88;-2.98;-3.14;-3.36;-3.57;-3.72;-3.78;-3.63;-3.11;-2.28;-1.25;-0.187;0.673;1.18;1.36;1.28;1.03;0.821;0.766;0.828;0.998;1.34;1.78;2.19;2.53;2.74;2.8;2.78;2.72;2.64;2.63;2.68;2.81;3.1;3.51;4.02;4.58;5.18;5.83;6.43;6.86;7.12;7.22;7.11;6.87;6.62;6.4;6.24;6.15;6.06;5.98;5.88;5.73;5.51;5.16;4.64;4.03;3.42;2.89;2.53;2.35;2.28;2.34;2.49;2.67;2.84;2.93;2.85;2.54;1.99;1.31;0.596;0.0215;-0.342;-0.594;-0.795;-0.967;-1.17;-1.46;-1.86;-2.35;-2.92;-3.5;-3.98;-4.37;-4.68;-4.9;-5.01;-5.04;-5.03;-4.97;-4.73;-4.23;-3.46;-2.52;-1.68;-1.16;-1;-1.29;-1.97;-2.74;-3.4;-3.79;-3.86;-3.65;-3.24;-2.73;-2.15;-1.54;-1;-0.646;-0.555;-0.761;-1.27;-2.08;-3.03;-3.87;-4.4;-4.53;-4.19;-3.38;-2.27;-1.13;-0.17;0.455;0.615;0.251;-0.515;-1.37;-2.02;-2.3;-2.15;-1.52;-0.505;0.608;1.55;2.17;2.37;2.11;1.48;0.642;-0.29;-1.19;-1.92;-2.36;-2.48;-2.24;-1.73;-1.08;-0.385;0.302;0.836;1.15;1.23;0.998;0.469;-0.227;-0.927;-1.43;-1.59;-1.29;-0.522;0.546;1.7;2.68;3.27;3.36;3.02;2.39;1.65;1.04;0.701;0.651;0.855;1.23;1.68;2.06;2.27;2.26;1.98;1.53;0.965;0.318;-0.304;-0.797;-1.18;-1.47;-1.68;-1.82;-1.91;-1.98;-2.07;-2.25;-2.53;-2.84;-3.17;-3.48;-3.64;-3.54;-3.16;-2.59;-1.92;-1.36;-1.06;-1.04;-1.2;-1.44;-1.71;-1.95;-2.07;-2.04;-1.93;-1.68;-1.29;-0.891;-0.591;-0.433;-0.424;-0.539;-0.704;-0.785;-0.661;-0.318;0.192;0.816;1.46;2.02;2.4;2.56;2.49;2.25;1.95;1.62;1.28;1.04;1.02;1.19;1.53;2.03;2.57;3.06;3.45;3.7;3.79;3.77;3.57;3.15;2.58;1.96;1.42;1.08;0.994;1.15;1.4;1.5;1.29;0.824;0.165;-0.649;-1.45;-2.03;-2.3;-2.22;-1.83;-1.3;-0.781;-0.388;-0.201;-0.22;-0.455;-0.857;-1.23;-1.39;-1.3;-0.953;-0.352;0.414;1.18;1.86;2.38;2.64;2.61;2.42;2.12;1.81;1.58;1.48;1.48;1.5;1.52;1.52;1.51;1.53;1.67;1.93;2.27;2.72;3.24;3.72;4.05;4.19;4.17;4.06;3.89;3.69;3.49;3.34;3.26;3.14;2.97;2.66;2.1;1.27;0.211;-0.977;-2.17;-3.12;-3.63;-3.69;-3.44;-3.08;-2.78;-2.62;-2.63;-2.76;-2.96;-3.2;-3.43;-3.58;-3.62;-3.5;-3.2;-2.78;-2.34;-1.97;-1.67;-1.43;-1.23;-1.09;-0.967;-0.85;-0.838;-1.05;-1.5;-2.09;-2.63;-2.95;-3.04;-2.86;-2.36;-1.7;-1.12;-0.749;-0.654;-0.764;-0.915;-1;-0.991;-0.833;-0.474;0.144;1.04;2.09;3.06;3.83;4.28;4.2;3.6;2.68;1.67;0.769;0.165;-0.0359;0.144;0.524;0.903;1.17;1.23;0.998;0.558;0;-0.673;-1.38;-1.93;-2.22;-2.33;-2.34;-2.3;-2.21;-2.02;-1.65;-1.07;-0.333;0.388;0.912;1.09;0.876;0.33;-0.453;-1.28;-1.98;-2.45;-2.65;-2.55;-2.23;-1.85;-1.43;-1.02;-0.747;-0.634;-0.599;-0.498;-0.244;0.139;0.577;1.06;1.63;2.3;2.96;3.51;3.96;4.33;4.6;4.84;4.98;4.95;4.74;4.39;3.89;3.31;2.78;2.33;1.94;1.62;1.31;0.998;0.716;0.453;0.177;-0.132;-0.397;-0.546;-0.613;-0.634;-0.596;-0.46;-0.266;-0.113;0.00958;0.105;0.16;0.156;0.127;0.172;0.261;0.225;0.0359;-0.251;-0.599;-0.934;-1.16;-1.26;-1.23;-1.04;-0.694;-0.287;0.101;0.414;0.524;0.359;0.00239;-0.484;-1.01;-1.41;-1.59;-1.52;-1.21;-0.675;0.00718;0.618;0.953;0.962;0.716;0.314;-0.0958;-0.342;-0.292;0.141;0.857;1.68;2.41;2.75;2.57;1.87;0.749;-0.505;-1.64;-2.48;-2.9;-2.98;-2.83;-2.53;-2.19;-1.95;-1.93;-2.2;-2.75;-3.59;-4.64;-5.64;-6.37;-6.78;-6.8;-6.39;-5.6;-4.63;-3.61;-2.63;-1.8;-1.23;-0.955;-0.907;-0.979;-1.13;-1.31;-1.4;-1.35;-1.22;-1.06;-0.924;-0.776;-0.565;-0.323;-0.0479;0.256;0.524;0.759;0.984;1.22;1.51;1.92;2.5;3.25;4.06;4.77;5.32;5.68;5.73;5.45;4.9;4.2;3.47;2.83;2.44;2.44;2.8;3.36;3.97;4.41;4.5;4.16;3.5;2.72;2.02;1.49;1.16;1.01;0.943;0.931;0.91;0.797;0.558;0.146;-0.524;-1.36;-2.2;-2.96;-3.53;-3.86;-4.02;-4.02;-3.92;-3.75
